time[s],flange_omega_x[rad/s],flange_omega_y[rad/s],flange_omega_z[rad/s],flange_alpha_x[rad/s2],flange_alpha_y[rad/s2],flange_alpha_z[rad/s2],cycloid_acc_x[m/s2],cycloid_acc_y[m/s2],cycloid_acc_z[m/s2],input_omega_x[rad/s],input_omega_y[rad/s],input_omega_z[rad/s],crank_omega_z[rad/s]
0.000000000000000000e+00,0.000000000000000000e+00,0.000000000000000000e+00,0.000000000000000000e+00,0.000000000000000000e+00,0.000000000000000000e+00,7.701947378638139526e+03,-9.007359125380499165e+01,1.802990128583228397e+02,0.000000000000000000e+00,0.000000000000000000e+00,0.000000000000000000e+00,0.000000000000000000e+00,0.000000000000000000e+00
5.000000000000000240e-05,0.000000000000000000e+00,0.000000000000000000e+00,1.069170009155033865e-02,0.000000000000000000e+00,0.000000000000000000e+00,1.299231358265154199e+02,3.313441481640124664e+01,1.543343220335765942e+01,0.000000000000000000e+00,0.000000000000000000e+00,0.000000000000000000e+00,1.409955176019781486e-01,-6.920013437017034919e-02
1.031249999999999723e-04,0.000000000000000000e+00,0.000000000000000000e+00,1.231438152103208651e-02,0.000000000000000000e+00,0.000000000000000000e+00,-4.126908933722059913e+01,1.247240891033481169e+01,1.639762552592621248e+01,0.000000000000000000e+00,0.000000000000000000e+00,0.000000000000000000e+00,2.908124196429995312e-01,-9.745007269821899520e-02
1.531249999999999408e-04,0.000000000000000000e+00,0.000000000000000000e+00,1.030759639265626387e-02,0.000000000000000000e+00,0.000000000000000000e+00,-2.608375360639079332e+01,1.549813044060804890e+00,1.083847768635593312e+01,0.000000000000000000e+00,0.000000000000000000e+00,0.000000000000000000e+00,4.318129707459464894e-01,-1.286848700386824806e-01
2.093749999999998986e-04,0.000000000000000000e+00,0.000000000000000000e+00,9.694063537064966443e-03,0.000000000000000000e+00,0.000000000000000000e+00,1.057811491878334564e+01,-2.103197273383997923e-01,6.242256530685883043e+00,0.000000000000000000e+00,0.000000000000000000e+00,0.000000000000000000e+00,5.904370823540371349e-01,-1.914250377802036718e-01
2.593749999999998943e-04,0.000000000000000000e+00,0.000000000000000000e+00,9.026703430461349362e-03,0.000000000000000000e+00,0.000000000000000000e+00,2.941895197739732026e+01,6.035961807878224006e-01,2.587518926616996673e+00,0.000000000000000000e+00,0.000000000000000000e+00,0.000000000000000000e+00,7.314371716227122677e-01,-2.431709101490228953e-01
3.093749999999998086e-04,0.000000000000000000e+00,0.000000000000000000e+00,1.431815713845479079e-02,0.000000000000000000e+00,0.000000000000000000e+00,1.440413326968134982e+02,8.117016131172448690e-01,-1.370283998573176731e+00,0.000000000000000000e+00,0.000000000000000000e+00,0.000000000000000000e+00,8.724372488862150998e-01,-2.929121139744831903e-01
3.593749999999998313e-04,0.000000000000000000e+00,0.000000000000000000e+00,2.133545040579556268e-02,0.000000000000000000e+00,0.000000000000000000e+00,1.362729173342463014e+02,6.971117051352795357e-01,-4.587949332794587498e+00,0.000000000000000000e+00,0.000000000000000000e+00,0.000000000000000000e+00,1.013437310649280665e+00,-3.379860488629866100e-01
4.093749999999997456e-04,0.000000000000000000e+00,0.000000000000000000e+00,2.772671564897793289e-02,0.000000000000000000e+00,0.000000000000000000e+00,1.217319705294554097e+02,1.024201713347159481e+00,-9.084715458160074419e+00,0.000000000000000000e+00,0.000000000000000000e+00,0.000000000000000000e+00,1.154437358759172971e+00,-3.945358686430124329e-01
4.593749999999996599e-04,0.000000000000000000e+00,0.000000000000000000e+00,3.363361490673526938e-02,0.000000000000000000e+00,0.000000000000000000e+00,1.130702203705668296e+02,1.991154933620190359e+00,-1.291868602381590492e+01,0.000000000000000000e+00,0.000000000000000000e+00,0.000000000000000000e+00,1.295437396173066302e+00,-4.332499380883526596e-01
5.093749999999996284e-04,0.000000000000000000e+00,0.000000000000000000e+00,3.912836437581752869e-02,0.000000000000000000e+00,0.000000000000000000e+00,1.088595070903797506e+02,3.090261684761753447e+00,-1.410190339779085811e+01,0.000000000000000000e+00,0.000000000000000000e+00,0.000000000000000000e+00,1.436437575405787870e+00,-4.781881047522918982e-01
5.593749999999995427e-04,0.000000000000000000e+00,0.000000000000000000e+00,4.446777622568952315e-02,0.000000000000000000e+00,0.000000000000000000e+00,1.045211006709902364e+02,4.160709947382462026e+00,-1.280461662096350928e+01,0.000000000000000000e+00,0.000000000000000000e+00,0.000000000000000000e+00,1.577437554029368361e+00,-5.251928974695041497e-01
6.093749999999994570e-04,0.000000000000000000e+00,0.000000000000000000e+00,4.979220295302483335e-02,0.000000000000000000e+00,0.000000000000000000e+00,1.059438332536418557e+02,5.276905785808045479e+00,-1.012547855699268240e+01,0.000000000000000000e+00,0.000000000000000000e+00,0.000000000000000000e+00,1.718437538053847913e+00,-5.700645998933395742e-01
6.593749999999994798e-04,0.000000000000000000e+00,0.000000000000000000e+00,5.481921512589228024e-02,0.000000000000000000e+00,0.000000000000000000e+00,9.332686582542802967e+01,6.481788265010443695e+00,-6.677768597299269970e+00,0.000000000000000000e+00,0.000000000000000000e+00,0.000000000000000000e+00,1.859437473712725053e+00,-6.186846861245571816e-01
7.093749999999996109e-04,0.000000000000000000e+00,0.000000000000000000e+00,5.895974527764258344e-02,0.000000000000000000e+00,0.000000000000000000e+00,6.673772649257985279e+01,2.523684372645680352e+00,-5.015937016452901354e+00,0.000000000000000000e+00,0.000000000000000000e+00,0.000000000000000000e+00,2.000437481929827399e+00,-6.651265908580503705e-01
7.593749999999997420e-04,0.000000000000000000e+00,0.000000000000000000e+00,6.248661918838240015e-02,0.000000000000000000e+00,0.000000000000000000e+00,7.375355090176988426e+01,-2.809833359343795411e+00,-4.075983222825962038e+00,0.000000000000000000e+00,0.000000000000000000e+00,0.000000000000000000e+00,2.141437487604146650e+00,-7.126274151960884096e-01
8.031249999999998026e-04,0.000000000000000000e+00,0.000000000000000000e+00,6.531168236388612547e-02,0.000000000000000000e+00,0.000000000000000000e+00,5.040420321139073678e+01,-2.664524150114679024e+00,-2.168070288561672498e+00,0.000000000000000000e+00,0.000000000000000000e+00,0.000000000000000000e+00,2.264812491113695980e+00,-7.541097264191207739e-01
8.499999999999995190e-04,0.000000000000000000e+00,0.000000000000000000e+00,6.750406050297111382e-02,0.000000000000000000e+00,0.000000000000000000e+00,3.345935618152940805e+01,-1.940616325957968513e+00,1.977158486418688910e-01,0.000000000000000000e+00,0.000000000000000000e+00,0.000000000000000000e+00,2.396925499521828762e+00,-8.029215964410435502e-01
8.999999999999992164e-04,0.000000000000000000e+00,0.000000000000000000e+00,6.627658279934248164e-02,0.000000000000000000e+00,0.000000000000000000e+00,-6.315270322211580378e+01,-4.844946005787750032e+00,4.782851249992098097e+00,0.000000000000000000e+00,0.000000000000000000e+00,0.000000000000000000e+00,2.538047659756632157e+00,-8.515247782785492214e-01
9.499999999999989139e-04,0.000000000000000000e+00,0.000000000000000000e+00,6.411913228942249521e-02,0.000000000000000000e+00,0.000000000000000000e+00,-1.582209454593793474e+01,-2.450492964305073684e+00,6.258466640032156469e+00,0.000000000000000000e+00,0.000000000000000000e+00,0.000000000000000000e+00,2.679022431382351410e+00,-8.954932476373407280e-01
1.006249999999998682e-03,0.000000000000000000e+00,0.000000000000000000e+00,6.418577725716373417e-02,0.000000000000000000e+00,0.000000000000000000e+00,1.564453118489255345e+01,1.329979467197772047e+00,5.851333255630026819e+00,0.000000000000000000e+00,0.000000000000000000e+00,0.000000000000000000e+00,2.837616134318079464e+00,-9.509177786871405580e-01
1.056249999999998379e-03,0.000000000000000000e+00,0.000000000000000000e+00,6.556443087360161459e-02,0.000000000000000000e+00,0.000000000000000000e+00,3.695503753620570819e+01,4.047317825325418283e+00,4.152091205840626742e+00,0.000000000000000000e+00,0.000000000000000000e+00,0.000000000000000000e+00,2.978622149588524781e+00,-9.961585848058278625e-01
1.106249999999998294e-03,0.000000000000000000e+00,0.000000000000000000e+00,6.757222959450216726e-02,0.000000000000000000e+00,0.000000000000000000e+00,4.100154279016349790e+01,5.326706920355386288e+00,2.465945980727937137e+00,0.000000000000000000e+00,0.000000000000000000e+00,0.000000000000000000e+00,3.119624810263349701e+00,-1.041919182628968654e+00
1.156249999999998425e-03,0.000000000000000000e+00,0.000000000000000000e+00,6.949141139483572260e-02,0.000000000000000000e+00,0.000000000000000000e+00,3.535315042846533373e+01,5.744540611272282327e+00,1.248432419683426664e+00,0.000000000000000000e+00,0.000000000000000000e+00,0.000000000000000000e+00,3.260622924268427703e+00,-1.087843362578325479e+00
1.206249999999998556e-03,0.000000000000000000e+00,0.000000000000000000e+00,7.111818657502350094e-02,0.000000000000000000e+00,0.000000000000000000e+00,2.825753030030577762e+01,5.556592390817382210e+00,1.572660161948970514e-01,0.000000000000000000e+00,0.000000000000000000e+00,0.000000000000000000e+00,3.401621761801139510e+00,-1.134422949780594658e+00
1.256249999999998687e-03,0.000000000000000000e+00,0.000000000000000000e+00,7.231787169689160577e-02,0.000000000000000000e+00,0.000000000000000000e+00,1.924730523267046678e+01,2.419620554353159037e+00,-1.888319219588220799e+00,0.000000000000000000e+00,0.000000000000000000e+00,0.000000000000000000e+00,3.542621116005284954e+00,-1.181148605470736745e+00
1.306249999999998385e-03,0.000000000000000000e+00,0.000000000000000000e+00,7.273264642995512508e-02,0.000000000000000000e+00,0.000000000000000000e+00,2.058854000898906467e+00,1.157536543214463975e+00,-3.413107097544915369e+00,0.000000000000000000e+00,0.000000000000000000e+00,0.000000000000000000e+00,3.683621086361522856e+00,-1.230391044517204158e+00
1.356249999999998082e-03,0.000000000000000000e+00,0.000000000000000000e+00,7.269755193247140479e-02,0.000000000000000000e+00,0.000000000000000000e+00,-4.394646123844233365e+00,8.557729334297502488e-01,-3.277001358608059078e+00,0.000000000000000000e+00,0.000000000000000000e+00,0.000000000000000000e+00,3.824621536456063620e+00,-1.279629416250155582e+00
1.399999999999997817e-03,0.000000000000000000e+00,0.000000000000000000e+00,7.208115941473657029e-02,0.000000000000000000e+00,0.000000000000000000e+00,-2.684670930832405844e+01,-1.611294942223054694e+00,-3.271872048437635794e+00,0.000000000000000000e+00,0.000000000000000000e+00,0.000000000000000000e+00,3.947855705403138238e+00,-1.319168920528617894e+00
1.456249999999997477e-03,0.000000000000000000e+00,0.000000000000000000e+00,6.942454703414333017e-02,0.000000000000000000e+00,0.000000000000000000e+00,-6.915129394971560828e+01,-3.508148762576618562e+00,-1.766710776586909892e+00,0.000000000000000000e+00,0.000000000000000000e+00,0.000000000000000000e+00,4.106483400103474679e+00,-1.373170368062949009e+00
1.506249999999997174e-03,0.000000000000000000e+00,0.000000000000000000e+00,6.514023403651959809e-02,0.000000000000000000e+00,0.000000000000000000e+00,-1.000428738221642249e+02,-3.111745337574630899e+00,-7.249254291979811970e-01,0.000000000000000000e+00,0.000000000000000000e+00,0.000000000000000000e+00,4.247504387959000205e+00,-1.423051920135143256e+00
1.568749999999997013e-03,0.000000000000000000e+00,0.000000000000000000e+00,5.806622569915088211e-02,0.000000000000000000e+00,0.000000000000000000e+00,-1.226838286236148576e+02,-4.224219517388045020e+00,-4.738397478329393064e-01,0.000000000000000000e+00,0.000000000000000000e+00,0.000000000000000000e+00,4.423782934323465810e+00,-1.476671474513298943e+00
1.599999999999997041e-03,0.000000000000000000e+00,0.000000000000000000e+00,5.433734380064027952e-02,0.000000000000000000e+00,0.000000000000000000e+00,-1.164684716429611768e+02,-3.692319124116736351e+00,-6.207159884642846626e-01,0.000000000000000000e+00,0.000000000000000000e+00,0.000000000000000000e+00,4.511909576868961658e+00,-1.504189344532868455e+00
1.649999999999997823e-03,0.000000000000000000e+00,0.000000000000000000e+00,4.890634350177795742e-02,0.000000000000000000e+00,0.000000000000000000e+00,-1.002744389629473005e+02,-2.122530629355175336e+00,-1.204421020167086853e+00,0.000000000000000000e+00,0.000000000000000000e+00,0.000000000000000000e+00,4.652958743995095681e+00,-1.550508264231325928e+00
1.706249999999997482e-03,0.000000000000000000e+00,0.000000000000000000e+00,4.388431926660672083e-02,0.000000000000000000e+00,0.000000000000000000e+00,-7.852886174187158019e+01,-6.189418278942612206e-01,-1.398877493008374939e+00,0.000000000000000000e+00,0.000000000000000000e+00,0.000000000000000000e+00,4.811585580253378680e+00,-1.604267689167182320e+00
1.756249999999997180e-03,0.000000000000000000e+00,0.000000000000000000e+00,4.041712076708323109e-02,0.000000000000000000e+00,0.000000000000000000e+00,-6.052600971952159625e+01,2.069619539804314345e-01,-1.449758910751608898e+00,0.000000000000000000e+00,0.000000000000000000e+00,0.000000000000000000e+00,4.952594627547775907e+00,-1.650195044264135991e+00
1.806249999999996877e-03,0.000000000000000000e+00,0.000000000000000000e+00,3.778229545774099835e-02,0.000000000000000000e+00,0.000000000000000000e+00,-4.476602911653031214e+01,6.222149046539809936e-01,-1.008330268172232369e+00,0.000000000000000000e+00,0.000000000000000000e+00,0.000000000000000000e+00,5.093602114176466245e+00,-1.697163946482308061e+00
1.856249999999996575e-03,0.000000000000000000e+00,0.000000000000000000e+00,3.596895491837940467e-02,0.000000000000000000e+00,0.000000000000000000e+00,-2.706067061044374711e+01,7.301560293498987608e-01,-1.841319637100463369e-01,0.000000000000000000e+00,0.000000000000000000e+00,0.000000000000000000e+00,5.234608043566882252e+00,-1.744341694403410914e+00
1.918749999999996413e-03,0.000000000000000000e+00,0.000000000000000000e+00,3.472022994779729727e-02,0.000000000000000000e+00,0.000000000000000000e+00,-9.153872772250494450e+00,8.116379085141297578e-01,6.798832463874429077e-01,0.000000000000000000e+00,0.000000000000000000e+00,0.000000000000000000e+00,5.410863558123256922e+00,-1.804693618716794568e+00
1.956249999999996186e-03,0.000000000000000000e+00,0.000000000000000000e+00,3.463947380424511197e-02,0.000000000000000000e+00,0.000000000000000000e+00,4.158383729755561475e+00,1.220412979524462038e+00,7.084416034652915029e-01,0.000000000000000000e+00,0.000000000000000000e+00,0.000000000000000000e+00,5.516439093819388795e+00,-1.839395065228044190e+00
2.006249999999995884e-03,0.000000000000000000e+00,0.000000000000000000e+00,3.517331274823368853e-02,0.000000000000000000e+00,0.000000000000000000e+00,1.637299459972242133e+01,2.124578158481476464e+00,5.500698567134343353e-01,0.000000000000000000e+00,0.000000000000000000e+00,0.000000000000000000e+00,5.657333099409595611e+00,-1.884909838519530423e+00
2.056249999999995581e-03,0.000000000000000000e+00,0.000000000000000000e+00,3.620577360495148139e-02,0.000000000000000000e+00,0.000000000000000000e+00,2.546903459809487202e+01,3.093795003380678477e+00,4.774735600167527849e-01,0.000000000000000000e+00,0.000000000000000000e+00,0.000000000000000000e+00,5.798239881740879120e+00,-1.930806550361095608e+00
2.099999999999996834e-03,0.000000000000000000e+00,0.000000000000000000e+00,3.742221019633836659e-02,0.000000000000000000e+00,0.000000000000000000e+00,3.015903386186273849e+01,3.842367550776941254e+00,5.269127718015157447e-01,0.000000000000000000e+00,0.000000000000000000e+00,0.000000000000000000e+00,5.922092756049790019e+00,-1.972450642470733317e+00
2.149999999999998267e-03,0.000000000000000000e+00,0.000000000000000000e+00,3.908438833897327075e-02,0.000000000000000000e+00,0.000000000000000000e+00,3.663962023907807719e+01,4.470881521771894462e+00,6.489161525976947509e-01,0.000000000000000000e+00,0.000000000000000000e+00,0.000000000000000000e+00,6.062994941014096639e+00,-2.020048663370741515e+00
2.199999999999997964e-03,0.000000000000000000e+00,0.000000000000000000e+00,4.111591083126773377e-02,0.000000000000000000e+00,0.000000000000000000e+00,4.478190484960691720e+01,4.790210853601243102e+00,7.689394680900136780e-01,0.000000000000000000e+00,0.000000000000000000e+00,0.000000000000000000e+00,6.203968565990763295e+00,-2.067434603824688466e+00
2.249999999999997662e-03,0.000000000000000000e+00,0.000000000000000000e+00,4.357544658838634344e-02,0.000000000000000000e+00,0.000000000000000000e+00,5.367937754278418083e+01,4.899086846001538653e+00,8.474682048569616155e-01,0.000000000000000000e+00,0.000000000000000000e+00,0.000000000000000000e+00,6.344960930020605794e+00,-2.114785124761123125e+00
2.299999999999997359e-03,0.000000000000000000e+00,0.000000000000000000e+00,4.646761530753178160e-02,0.000000000000000000e+00,0.000000000000000000e+00,6.178831198550131631e+01,4.874415662394619098e+00,8.904589564530541734e-01,0.000000000000000000e+00,0.000000000000000000e+00,0.000000000000000000e+00,6.486038213091075200e+00,-2.162013424707033504e+00
2.349999999999997057e-03,0.000000000000000000e+00,0.000000000000000000e+00,4.971785110263558100e-02,0.000000000000000000e+00,0.000000000000000000e+00,6.790524690712597078e+01,4.796567312244455650e+00,9.020866368742181951e-01,0.000000000000000000e+00,0.000000000000000000e+00,0.000000000000000000e+00,6.627035824694421429e+00,-2.209120514645334321e+00
2.399999999999996754e-03,0.000000000000000000e+00,0.000000000000000000e+00,5.322534740362449418e-02,0.000000000000000000e+00,0.000000000000000000e+00,7.200852859717264209e+01,4.680000985207044550e+00,8.622463175811647673e-01,0.000000000000000000e+00,0.000000000000000000e+00,0.000000000000000000e+00,6.768032964395940709e+00,-2.256368180954522185e+00
2.449999999999996451e-03,0.000000000000000000e+00,0.000000000000000000e+00,5.686217682488802633e-02,0.000000000000000000e+00,0.000000000000000000e+00,7.316388219258840309e+01,4.279690872703212356e+00,5.589994601708000443e-01,0.000000000000000000e+00,0.000000000000000000e+00,0.000000000000000000e+00,6.909029897739512371e+00,-2.303567216308259002e+00
2.499999999999996149e-03,0.000000000000000000e+00,0.000000000000000000e+00,6.052740353687376118e-02,0.000000000000000000e+00,0.000000000000000000e+00,7.320436309710923695e+01,3.990490677013430076e+00,3.187816847358507788e-01,0.000000000000000000e+00,0.000000000000000000e+00,0.000000000000000000e+00,7.050026806397810653e+00,-2.350932631776738280e+00
2.574999999999996129e-03,0.000000000000000000e+00,0.000000000000000000e+00,6.580139004188702290e-02,0.000000000000000000e+00,0.000000000000000000e+00,6.668343618279300244e+01,3.354458559243346905e+00,-1.011132390645323870e-01,0.000000000000000000e+00,0.000000000000000000e+00,0.000000000000000000e+00,7.261522456458703090e+00,-2.421997819507851535e+00
2.599999999999995978e-03,0.000000000000000000e+00,0.000000000000000000e+00,6.736985033858276795e-02,0.000000000000000000e+00,0.000000000000000000e+00,6.434134493645829878e+01,3.226702581208498621e+00,-2.640415861885277438e-01,0.000000000000000000e+00,0.000000000000000000e+00,0.000000000000000000e+00,7.331812336467689484e+00,-2.444917902785945785e+00
2.649999999999995675e-03,0.000000000000000000e+00,0.000000000000000000e+00,7.045049459076041520e-02,0.000000000000000000e+00,0.000000000000000000e+00,5.822758005854859675e+01,3.023560515549558847e+00,-5.379146507327642324e-01,0.000000000000000000e+00,0.000000000000000000e+00,0.000000000000000000e+00,7.472576719133465772e+00,-2.492695035109250057e+00
2.699999999999996240e-03,0.000000000000000000e+00,0.000000000000000000e+00,7.321089334073639654e-02,0.000000000000000000e+00,0.000000000000000000e+00,5.113522213185669330e+01,2.842805183772748379e+00,-6.619572254846397552e-01,0.000000000000000000e+00,0.000000000000000000e+00,0.000000000000000000e+00,7.614529935594743115e+00,-2.540018958573899699e+00
2.749999999999997238e-03,0.000000000000000000e+00,0.000000000000000000e+00,7.553344564419882390e-02,0.000000000000000000e+00,0.000000000000000000e+00,4.148296809209580971e+01,2.785738339217709303e+00,-7.744307443665398027e-01,0.000000000000000000e+00,0.000000000000000000e+00,0.000000000000000000e+00,7.754597203329240962e+00,-2.586579064666750583e+00
2.799999999999996936e-03,0.000000000000000000e+00,0.000000000000000000e+00,7.734032319422598500e-02,0.000000000000000000e+00,0.000000000000000000e+00,3.071306932443474835e+01,2.770750736861448793e+00,-9.301727720009990152e-01,0.000000000000000000e+00,0.000000000000000000e+00,0.000000000000000000e+00,7.895720208245446514e+00,-2.633285513004358869e+00
2.849999999999996633e-03,0.000000000000000000e+00,0.000000000000000000e+00,7.852868293544831846e-02,0.000000000000000000e+00,0.000000000000000000e+00,1.642667745512440547e+01,2.798991373501664714e+00,-1.579857930719229753e+00,0.000000000000000000e+00,0.000000000000000000e+00,0.000000000000000000e+00,8.036806248018509180e+00,-2.680721446454156442e+00
2.899999999999996331e-03,0.000000000000000000e+00,0.000000000000000000e+00,7.903357559787968500e-02,0.000000000000000000e+00,0.000000000000000000e+00,4.171098408665131707e+00,2.503343950058684708e+00,-1.820183818087353744e+00,0.000000000000000000e+00,0.000000000000000000e+00,0.000000000000000000e+00,8.178133365946171907e+00,-2.728234394462413892e+00
2.949999999999996028e-03,0.000000000000000000e+00,0.000000000000000000e+00,7.901174178020305139e-02,0.000000000000000000e+00,0.000000000000000000e+00,-4.604430093943493674e+00,2.053009686537478284e+00,-1.746560024179770965e+00,0.000000000000000000e+00,0.000000000000000000e+00,0.000000000000000000e+00,8.319089250484807962e+00,-2.775195178965295106e+00
2.999999999999995726e-03,0.000000000000000000e+00,0.000000000000000000e+00,7.864161393555037238e-02,0.000000000000000000e+00,0.000000000000000000e+00,-9.875954092301604703e+00,1.598264835225500002e+00,-1.453288726149762899e+00,0.000000000000000000e+00,0.000000000000000000e+00,0.000000000000000000e+00,8.460057084388354909e+00,-2.821862223068571929e+00
3.049999999999995423e-03,0.000000000000000000e+00,0.000000000000000000e+00,7.807332148866386046e-02,0.000000000000000000e+00,0.000000000000000000e+00,-1.261837504247688813e+01,1.251347157826447454e+00,-1.063912805143011564e+00,0.000000000000000000e+00,0.000000000000000000e+00,0.000000000000000000e+00,8.601033919465853828e+00,-2.868464556244588071e+00
3.099999999999995554e-03,0.000000000000000000e+00,0.000000000000000000e+00,7.742655780798017584e-02,0.000000000000000000e+00,0.000000000000000000e+00,-1.325013931090389718e+01,1.121046861756693547e+00,-6.586004118098059967e-01,0.000000000000000000e+00,0.000000000000000000e+00,0.000000000000000000e+00,8.742025641818170101e+00,-2.914718003759567022e+00
3.149999999999996986e-03,0.000000000000000000e+00,0.000000000000000000e+00,7.677777428349179256e-02,0.000000000000000000e+00,0.000000000000000000e+00,-1.265233569802549773e+01,1.153211794675841784e+00,-2.718838844055240234e-01,0.000000000000000000e+00,0.000000000000000000e+00,0.000000000000000000e+00,8.883160862804768243e+00,-2.961826535090371415e+00
3.199999999999996684e-03,0.000000000000000000e+00,0.000000000000000000e+00,7.617456554319129713e-02,0.000000000000000000e+00,0.000000000000000000e+00,-1.148089679509382321e+01,1.214046159167825989e+00,2.389107863069235907e-02,0.000000000000000000e+00,0.000000000000000000e+00,0.000000000000000000e+00,9.024159279951295076e+00,-3.008727750184259087e+00
3.249999999999996381e-03,0.000000000000000000e+00,0.000000000000000000e+00,7.565149058756164002e-02,0.000000000000000000e+00,0.000000000000000000e+00,-8.961453724148446653e+00,1.321220688684933364e+00,1.721486379694690261e-01,0.000000000000000000e+00,0.000000000000000000e+00,0.000000000000000000e+00,9.165139760988356699e+00,-3.055579141374086927e+00
3.299999999999996079e-03,0.000000000000000000e+00,0.000000000000000000e+00,7.530090970941286099e-02,0.000000000000000000e+00,0.000000000000000000e+00,-4.968901419591810864e+00,1.533941253486412748e+00,2.352911042280859677e-01,0.000000000000000000e+00,0.000000000000000000e+00,0.000000000000000000e+00,9.305884522722564611e+00,-3.102495418200096111e+00
3.349999999999995776e-03,0.000000000000000000e+00,0.000000000000000000e+00,7.516323317054193764e-02,0.000000000000000000e+00,0.000000000000000000e+00,-5.301068063989694545e-01,1.837010078180627781e+00,4.886270484241352907e-01,0.000000000000000000e+00,0.000000000000000000e+00,0.000000000000000000e+00,9.446905264297411620e+00,-3.149373304998218437e+00
3.399999999999995474e-03,0.000000000000000000e+00,0.000000000000000000e+00,7.524978948657769229e-02,0.000000000000000000e+00,0.000000000000000000e+00,3.941024352024687261e+00,2.288757086678861796e+00,6.052398395593309166e-01,0.000000000000000000e+00,0.000000000000000000e+00,0.000000000000000000e+00,9.587922292803776614e+00,-3.196166664372621202e+00
3.449999999999995171e-03,0.000000000000000000e+00,0.000000000000000000e+00,7.553934174844188776e-02,0.000000000000000000e+00,0.000000000000000000e+00,7.613406720828862717e+00,2.659499767271170434e+00,6.809110674781349015e-01,0.000000000000000000e+00,0.000000000000000000e+00,0.000000000000000000e+00,9.728936270436301825e+00,-3.243050695769122527e+00
3.499999999999994869e-03,0.000000000000000000e+00,0.000000000000000000e+00,7.601329825479079261e-02,0.000000000000000000e+00,0.000000000000000000e+00,1.134401973150210985e+01,2.979453533154226896e+00,7.066356603012486914e-01,0.000000000000000000e+00,0.000000000000000000e+00,0.000000000000000000e+00,9.869947741798357654e+00,-3.290075879480503396e+00
3.574999999999994849e-03,0.000000000000000000e+00,0.000000000000000000e+00,7.711064935727635072e-02,0.000000000000000000e+00,0.000000000000000000e+00,1.821257685904476986e+01,3.292440488127566400e+00,6.885640771428560569e-01,0.000000000000000000e+00,0.000000000000000000e+00,0.000000000000000000e+00,1.008146139191053337e+01,-3.360752216498194667e+00
3.624999999999994980e-03,0.000000000000000000e+00,0.000000000000000000e+00,7.810959028105961266e-02,0.000000000000000000e+00,0.000000000000000000e+00,2.176140873659645081e+01,3.388605946002422264e+00,6.413194217439455169e-01,0.000000000000000000e+00,0.000000000000000000e+00,0.000000000000000000e+00,1.022253116605246070e+01,-3.407857437987615867e+00
3.649999999999994828e-03,0.000000000000000000e+00,0.000000000000000000e+00,7.865083439193247539e-02,0.000000000000000000e+00,0.000000000000000000e+00,2.332539854494290310e+01,3.420097974243498040e+00,6.039387515146805718e-01,0.000000000000000000e+00,0.000000000000000000e+00,0.000000000000000000e+00,1.029281914641649109e+01,-3.430690866252092075e+00
3.699999999999994526e-03,0.000000000000000000e+00,0.000000000000000000e+00,7.989615854917429816e-02,0.000000000000000000e+00,0.000000000000000000e+00,2.605659928402172554e+01,3.438783604072859656e+00,5.116718817958766374e-01,0.000000000000000000e+00,0.000000000000000000e+00,0.000000000000000000e+00,1.043360596589657163e+01,-3.478357122859325301e+00
3.749999999999994223e-03,0.000000000000000000e+00,0.000000000000000000e+00,8.124425447539203315e-02,0.000000000000000000e+00,0.000000000000000000e+00,2.752105267738888372e+01,3.388042229469874655e+00,3.880592966740135652e-01,0.000000000000000000e+00,0.000000000000000000e+00,0.000000000000000000e+00,1.057448032278887062e+01,-3.525476397259129868e+00
3.799999999999993921e-03,0.000000000000000000e+00,0.000000000000000000e+00,8.265402628821857944e-02,0.000000000000000000e+00,0.000000000000000000e+00,3.003534426573513372e+01,3.312679011567566612e+00,2.434372223412436254e-01,0.000000000000000000e+00,0.000000000000000000e+00,0.000000000000000000e+00,1.071541664869353561e+01,-3.572460591639062599e+00
3.849999999999993618e-03,0.000000000000000000e+00,0.000000000000000000e+00,8.414051520933865658e-02,0.000000000000000000e+00,0.000000000000000000e+00,3.066744081385114029e+01,3.208030609985697446e+00,1.088398321925198031e-01,0.000000000000000000e+00,0.000000000000000000e+00,0.000000000000000000e+00,1.085639593110092171e+01,-3.619546371156757925e+00
3.924999999999993598e-03,0.000000000000000000e+00,0.000000000000000000e+00,8.641943240952459915e-02,0.000000000000000000e+00,0.000000000000000000e+00,3.069948151958144322e+01,3.037636162126158723e+00,-6.538011529985426895e-02,0.000000000000000000e+00,0.000000000000000000e+00,0.000000000000000000e+00,1.106790813750709468e+01,-3.690193312871531628e+00
3.974999999999993296e-03,0.000000000000000000e+00,0.000000000000000000e+00,8.793561858982092139e-02,0.000000000000000000e+00,0.000000000000000000e+00,2.992202275030161474e+01,2.926458112789576127e+00,-1.610303055067714706e-01,0.000000000000000000e+00,0.000000000000000000e+00,0.000000000000000000e+00,1.121007703470254846e+01,-3.737345100522595942e+00
4.024999999999992993e-03,0.000000000000000000e+00,0.000000000000000000e+00,8.941562305139806599e-02,0.000000000000000000e+00,0.000000000000000000e+00,2.929629731015358729e+01,2.851165138496980056e+00,-2.120451421651163293e-01,0.000000000000000000e+00,0.000000000000000000e+00,0.000000000000000000e+00,1.134994074615435977e+01,-3.784344845113135403e+00
4.074999999999992691e-03,0.000000000000000000e+00,0.000000000000000000e+00,9.083825574709428197e-02,0.000000000000000000e+00,0.000000000000000000e+00,2.760093451080058102e+01,2.884661070098989200e+00,-1.582711192854850679e-01,0.000000000000000000e+00,0.000000000000000000e+00,0.000000000000000000e+00,1.149203925881266919e+01,-3.831393538417160460e+00
4.099999999999993407e-03,0.000000000000000000e+00,0.000000000000000000e+00,9.152184993086745490e-02,0.000000000000000000e+00,0.000000000000000000e+00,2.726005242112037763e+01,2.763738733527143498e+00,-2.352419827936778063e-01,0.000000000000000000e+00,0.000000000000000000e+00,0.000000000000000000e+00,1.156256009125670126e+01,-3.854895421128962774e+00
4.149999999999994839e-03,0.000000000000000000e+00,0.000000000000000000e+00,9.284016395075926631e-02,0.000000000000000000e+00,0.000000000000000000e+00,2.600947651165579444e+01,2.659881929580571125e+00,-2.785896622459262950e-01,0.000000000000000000e+00,0.000000000000000000e+00,0.000000000000000000e+00,1.170352925913662823e+01,-3.901983203486046214e+00
4.199999999999996271e-03,0.000000000000000000e+00,0.000000000000000000e+00,9.408634094879496368e-02,0.000000000000000000e+00,0.000000000000000000e+00,2.412197867814358432e+01,2.591526419640810541e+00,-2.997530544622238891e-01,0.000000000000000000e+00,0.000000000000000000e+00,0.000000000000000000e+00,1.184445339291744226e+01,-3.948953760429134707e+00
4.249999999999995969e-03,0.000000000000000000e+00,0.000000000000000000e+00,9.524786970484733217e-02,0.000000000000000000e+00,0.000000000000000000e+00,2.256231235197129337e+01,2.524450441399438194e+00,-3.089908059182541189e-01,0.000000000000000000e+00,0.000000000000000000e+00,0.000000000000000000e+00,1.198537569633230149e+01,-3.995901307860372231e+00
4.299999999999995666e-03,0.000000000000000000e+00,0.000000000000000000e+00,9.633625130394618541e-02,0.000000000000000000e+00,0.000000000000000000e+00,2.105184104902244258e+01,2.467426087876930296e+00,-3.069242139315632167e-01,0.000000000000000000e+00,0.000000000000000000e+00,0.000000000000000000e+00,1.212631115696560613e+01,-4.042894508928926101e+00
4.349999999999995363e-03,0.000000000000000000e+00,0.000000000000000000e+00,9.733080759866909182e-02,0.000000000000000000e+00,0.000000000000000000e+00,1.918083215736789171e+01,2.428463536135479384e+00,-2.870095918839182247e-01,0.000000000000000000e+00,0.000000000000000000e+00,0.000000000000000000e+00,1.226725757992025656e+01,-4.089898004910090812e+00
4.399999999999995061e-03,0.000000000000000000e+00,0.000000000000000000e+00,9.824943607884054075e-02,0.000000000000000000e+00,0.000000000000000000e+00,1.766014191750679529e+01,2.415380256414843441e+00,-2.513823050037604645e-01,0.000000000000000000e+00,0.000000000000000000e+00,0.000000000000000000e+00,1.240821312938568610e+01,-4.136875060526842063e+00
4.449999999999994758e-03,0.000000000000000000e+00,0.000000000000000000e+00,9.910038471529578064e-02,0.000000000000000000e+00,0.000000000000000000e+00,1.634241271853769462e+01,2.423557327042064724e+00,-2.065989683101535912e-01,0.000000000000000000e+00,0.000000000000000000e+00,0.000000000000000000e+00,1.254917627141855796e+01,-4.183844916920053336e+00
4.499999999999994456e-03,0.000000000000000000e+00,0.000000000000000000e+00,9.989274867002223557e-02,0.000000000000000000e+00,0.000000000000000000e+00,1.535729071496469977e+01,2.441874419954785491e+00,-1.556083560426824719e-01,0.000000000000000000e+00,0.000000000000000000e+00,0.000000000000000000e+00,1.268985482855277347e+01,-4.230811300473213521e+00
4.549999999999994153e-03,0.000000000000000000e+00,0.000000000000000000e+00,1.006349444764111783e-01,0.000000000000000000e+00,0.000000000000000000e+00,1.432701558828439481e+01,2.470457443559023858e+00,-1.091100295543418336e-01,0.000000000000000000e+00,0.000000000000000000e+00,0.000000000000000000e+00,1.283111852875560110e+01,-4.277877642247964296e+00
4.599999999999993851e-03,0.000000000000000000e+00,0.000000000000000000e+00,1.013360374651659512e-01,0.000000000000000000e+00,0.000000000000000000e+00,1.371725625357574430e+01,2.506290752871808358e+00,-7.030659524778233582e-02,0.000000000000000000e+00,0.000000000000000000e+00,0.000000000000000000e+00,1.297190423711197660e+01,-4.325218667054788746e+00
4.649999999999993548e-03,0.000000000000000000e+00,0.000000000000000000e+00,1.020131070991514566e-01,0.000000000000000000e+00,0.000000000000000000e+00,1.336390062717453731e+01,2.549311324367188103e+00,-2.482906688712724005e-02,0.000000000000000000e+00,0.000000000000000000e+00,0.000000000000000000e+00,1.311307636490609418e+01,-4.371973571837997063e+00
4.699999999999993246e-03,0.000000000000000000e+00,0.000000000000000000e+00,1.026809629348871822e-01,0.000000000000000000e+00,0.000000000000000000e+00,1.334989347347528188e+01,2.589548941675087868e+00,5.504211920000253236e-03,0.000000000000000000e+00,0.000000000000000000e+00,0.000000000000000000e+00,1.325394011110782166e+01,-4.418503960505505646e+00
4.749999999999992943e-03,0.000000000000000000e+00,0.000000000000000000e+00,1.033569452200084754e-01,0.000000000000000000e+00,0.000000000000000000e+00,1.368803253310445101e+01,2.640496843665940840e+00,2.362895780576464155e-02,0.000000000000000000e+00,0.000000000000000000e+00,0.000000000000000000e+00,1.339504594443186569e+01,-4.465488696696149340e+00
4.799999999999992641e-03,0.000000000000000000e+00,0.000000000000000000e+00,1.040600271623727535e-01,0.000000000000000000e+00,0.000000000000000000e+00,1.443428548036524894e+01,2.689858995303187061e+00,4.516103557669648438e-02,0.000000000000000000e+00,0.000000000000000000e+00,0.000000000000000000e+00,1.353596581002531529e+01,-4.512587989272795141e+00
4.849999999999993205e-03,0.000000000000000000e+00,0.000000000000000000e+00,1.047870320275240130e-01,0.000000000000000000e+00,0.000000000000000000e+00,1.548053686033160048e+01,2.756739352581676794e+00,4.023188805055866180e-02,0.000000000000000000e+00,0.000000000000000000e+00,0.000000000000000000e+00,1.367705758762569168e+01,-4.559485610510098041e+00
4.899999999999994638e-03,0.000000000000000000e+00,0.000000000000000000e+00,1.055807459028440115e-01,0.000000000000000000e+00,0.000000000000000000e+00,1.636302005271082294e+01,2.777425434423945738e+00,7.603956024356818555e-02,0.000000000000000000e+00,0.000000000000000000e+00,0.000000000000000000e+00,1.381827491932871332e+01,-4.607124187981439078e+00
4.949999999999996070e-03,0.000000000000000000e+00,0.000000000000000000e+00,1.064096612489607019e-01,0.000000000000000000e+00,0.000000000000000000e+00,1.707459693531469114e+01,2.766757325972321269e+00,8.383666242845561056e-02,0.000000000000000000e+00,0.000000000000000000e+00,0.000000000000000000e+00,1.395933595955767892e+01,-4.653875460285510357e+00
4.999999999999995767e-03,0.000000000000000000e+00,0.000000000000000000e+00,1.072849619655697750e-01,0.000000000000000000e+00,0.000000000000000000e+00,1.816282816057542604e+01,2.759653395801220821e+00,6.193022444252816588e-02,0.000000000000000000e+00,0.000000000000000000e+00,0.000000000000000000e+00,1.410034070199573009e+01,-4.700528531680764566e+00
5.049999999999995465e-03,0.000000000000000000e+00,0.000000000000000000e+00,1.082147107866816282e-01,0.000000000000000000e+00,0.000000000000000000e+00,1.923004096052924794e+01,2.762647414102388232e+00,2.908356887593072440e-02,0.000000000000000000e+00,0.000000000000000000e+00,0.000000000000000000e+00,1.424133151416801724e+01,-4.747448218465918579e+00
5.099999999999995162e-03,0.000000000000000000e+00,0.000000000000000000e+00,1.091951991543131523e-01,0.000000000000000000e+00,0.000000000000000000e+00,2.014397968274208495e+01,2.772852355423165882e+00,8.290639326469598572e-03,0.000000000000000000e+00,0.000000000000000000e+00,0.000000000000000000e+00,1.438231351837271177e+01,-4.794424025745382067e+00
5.149999999999994860e-03,0.000000000000000000e+00,0.000000000000000000e+00,1.101969384914513184e-01,0.000000000000000000e+00,0.000000000000000000e+00,2.026335506488554472e+01,2.792890451423588161e+00,-1.172761112950864749e-02,0.000000000000000000e+00,0.000000000000000000e+00,0.000000000000000000e+00,1.452329039331836924e+01,-4.841409143537146242e+00
5.199999999999994557e-03,0.000000000000000000e+00,0.000000000000000000e+00,1.112221618300161391e-01,0.000000000000000000e+00,0.000000000000000000e+00,2.086421256773503785e+01,2.817213895617609154e+00,-3.983053530164620132e-02,0.000000000000000000e+00,0.000000000000000000e+00,0.000000000000000000e+00,1.466426473777078776e+01,-4.888569678360209281e+00
5.274999999999994103e-03,0.000000000000000000e+00,0.000000000000000000e+00,1.128096417337301066e-01,0.000000000000000000e+00,0.000000000000000000e+00,2.154134567543032830e+01,2.815292691608997089e+00,-7.226170741721466007e-02,0.000000000000000000e+00,0.000000000000000000e+00,0.000000000000000000e+00,1.487572640637727162e+01,-4.959105665375362015e+00
5.324999999999993801e-03,0.000000000000000000e+00,0.000000000000000000e+00,1.138941554784841104e-01,0.000000000000000000e+00,0.000000000000000000e+00,2.184660787053553932e+01,2.795086811539537752e+00,-9.644928382967557501e-02,0.000000000000000000e+00,0.000000000000000000e+00,0.000000000000000000e+00,1.501629622209771142e+01,-5.006095935040794309e+00
5.374999999999993498e-03,0.000000000000000000e+00,0.000000000000000000e+00,1.149929410691030579e-01,0.000000000000000000e+00,0.000000000000000000e+00,2.209968091340758534e+01,2.770418480657178772e+00,-1.208272965172612762e-01,0.000000000000000000e+00,0.000000000000000000e+00,0.000000000000000000e+00,1.515768341105814976e+01,-5.053131320129763182e+00
5.424999999999993196e-03,0.000000000000000000e+00,0.000000000000000000e+00,1.160914374641523056e-01,0.000000000000000000e+00,0.000000000000000000e+00,2.184633238795070298e+01,2.747658024335308813e+00,-1.418866395706370465e-01,0.000000000000000000e+00,0.000000000000000000e+00,0.000000000000000000e+00,1.529833492019614027e+01,-5.100172722404614056e+00
5.474999999999992893e-03,0.000000000000000000e+00,0.000000000000000000e+00,1.171112069511138221e-01,0.000000000000000000e+00,0.000000000000000000e+00,1.895260231367543824e+01,2.747293123188765840e+00,-1.669686580226880934e-01,0.000000000000000000e+00,0.000000000000000000e+00,0.000000000000000000e+00,1.543964858068955159e+01,-5.147181458644213059e+00
5.524999999999992591e-03,0.000000000000000000e+00,0.000000000000000000e+00,1.181035397122563863e-01,0.000000000000000000e+00,0.000000000000000000e+00,2.071251084719956737e+01,2.826145085908587706e+00,-1.924201374983442250e-02,0.000000000000000000e+00,0.000000000000000000e+00,0.000000000000000000e+00,1.558036626939952463e+01,-5.194146596480203826e+00
5.574999999999992288e-03,0.000000000000000000e+00,0.000000000000000000e+00,1.190834508902043898e-01,0.000000000000000000e+00,0.000000000000000000e+00,1.852333851073902693e+01,3.090910833563671023e+00,-1.836994160839066359e-01,0.000000000000000000e+00,0.000000000000000000e+00,0.000000000000000000e+00,1.572162036472179381e+01,-5.241202615369798146e+00
5.599999999999992137e-03,0.000000000000000000e+00,0.000000000000000000e+00,1.195277829112287443e-01,0.000000000000000000e+00,0.000000000000000000e+00,1.858225437827883653e+01,3.145218195509590586e+00,-2.553859614867501904e-01,0.000000000000000000e+00,0.000000000000000000e+00,0.000000000000000000e+00,1.579173263022893181e+01,-5.264109874892251462e+00
5.649999999999991834e-03,0.000000000000000000e+00,0.000000000000000000e+00,1.203669706398263345e-01,0.000000000000000000e+00,0.000000000000000000e+00,1.509296741694392985e+01,3.097592569068701174e+00,-2.584309337301027298e-01,0.000000000000000000e+00,0.000000000000000000e+00,0.000000000000000000e+00,1.593252578322135982e+01,-5.312085138421993591e+00
5.699999999999991532e-03,0.000000000000000000e+00,0.000000000000000000e+00,1.210940165572855776e-01,0.000000000000000000e+00,0.000000000000000000e+00,1.338563312821488083e+01,2.998156788896046088e+00,-1.899856247447629098e-01,0.000000000000000000e+00,0.000000000000000000e+00,0.000000000000000000e+00,1.607340719012427854e+01,-5.359255939129818458e+00
5.749999999999991229e-03,0.000000000000000000e+00,0.000000000000000000e+00,1.217074637049998104e-01,0.000000000000000000e+00,0.000000000000000000e+00,1.108341040153368162e+01,2.862039451399454482e+00,-4.946058118287592620e-02,0.000000000000000000e+00,0.000000000000000000e+00,0.000000000000000000e+00,1.621435078163037957e+01,-5.405893425009717035e+00
5.799999999999990927e-03,0.000000000000000000e+00,0.000000000000000000e+00,1.222695543830803200e-01,0.000000000000000000e+00,0.000000000000000000e+00,1.116776033602898544e+01,2.701681846950290122e+00,2.538469404628801787e-02,0.000000000000000000e+00,0.000000000000000000e+00,0.000000000000000000e+00,1.635533720880049913e+01,-5.452560648091066220e+00
5.874999999999990473e-03,0.000000000000000000e+00,0.000000000000000000e+00,1.231865884832652608e-01,0.000000000000000000e+00,0.000000000000000000e+00,1.304299310124960165e+01,2.557332028120576695e+00,-1.828120122575928926e-03,0.000000000000000000e+00,0.000000000000000000e+00,0.000000000000000000e+00,1.656685929824194758e+01,-5.523011750719486912e+00
5.924999999999990170e-03,0.000000000000000000e+00,0.000000000000000000e+00,1.238823010342524483e-01,0.000000000000000000e+00,0.000000000000000000e+00,1.472963670601452790e+01,2.520737462920845662e+00,-4.551064925969970643e-02,0.000000000000000000e+00,0.000000000000000000e+00,0.000000000000000000e+00,1.670912017946529460e+01,-5.570147633536707055e+00
5.974999999999989868e-03,0.000000000000000000e+00,0.000000000000000000e+00,1.246409201593306343e-01,0.000000000000000000e+00,0.000000000000000000e+00,1.565938416050180315e+01,2.506303768329264603e+00,-8.389119232477981747e-02,0.000000000000000000e+00,0.000000000000000000e+00,0.000000000000000000e+00,1.684890264538582727e+01,-5.617073761465268156e+00
6.024999999999989565e-03,0.000000000000000000e+00,0.000000000000000000e+00,1.254410059931711785e-01,0.000000000000000000e+00,0.000000000000000000e+00,1.631318343686722727e+01,2.523550499137693581e+00,-1.356375142492696473e-01,0.000000000000000000e+00,0.000000000000000000e+00,0.000000000000000000e+00,1.699107289293787204e+01,-5.665500762086867148e+00
6.074999999999989263e-03,0.000000000000000000e+00,0.000000000000000000e+00,1.262747886510068307e-01,0.000000000000000000e+00,0.000000000000000000e+00,1.706012504221169479e+01,2.553508836241669133e+00,-1.315954321621159717e-01,0.000000000000000000e+00,0.000000000000000000e+00,0.000000000000000000e+00,1.713095264994888112e+01,-5.715123896520328373e+00
6.124999999999988960e-03,0.000000000000000000e+00,0.000000000000000000e+00,1.271648826254687670e-01,0.000000000000000000e+00,0.000000000000000000e+00,1.852420109594131148e+01,2.537675164154112650e+00,-5.908755994225578512e-02,0.000000000000000000e+00,0.000000000000000000e+00,0.000000000000000000e+00,1.727302118681196674e+01,-5.761891319848663429e+00
6.174999999999988658e-03,0.000000000000000000e+00,0.000000000000000000e+00,1.281035763470596001e-01,0.000000000000000000e+00,0.000000000000000000e+00,1.904220739203118740e+01,2.520233575531679815e+00,-8.210480251278551300e-02,0.000000000000000000e+00,0.000000000000000000e+00,0.000000000000000000e+00,1.741300521727940875e+01,-5.806305820249038518e+00
6.199999999999988506e-03,0.000000000000000000e+00,0.000000000000000000e+00,1.285762575318314671e-01,0.000000000000000000e+00,0.000000000000000000e+00,2.034784348380404850e+01,2.540909216559793737e+00,-1.249902900924753368e-01,0.000000000000000000e+00,0.000000000000000000e+00,0.000000000000000000e+00,1.748431730840873755e+01,-5.828048176751980947e+00
6.249999999999988204e-03,0.000000000000000000e+00,0.000000000000000000e+00,1.296184455370871791e-01,0.000000000000000000e+00,0.000000000000000000e+00,2.129690007745921676e+01,2.619751309183358856e+00,-1.767047419514946593e-01,0.000000000000000000e+00,0.000000000000000000e+00,0.000000000000000000e+00,1.762504966622742941e+01,-5.874697462608668097e+00
6.299999999999987901e-03,0.000000000000000000e+00,0.000000000000000000e+00,1.306930461010218092e-01,0.000000000000000000e+00,0.000000000000000000e+00,2.185012942116046375e+01,2.684013737645995601e+00,-2.041869511658337966e-01,0.000000000000000000e+00,0.000000000000000000e+00,0.000000000000000000e+00,1.776587227324165141e+01,-5.922236582295337115e+00
6.349999999999987599e-03,0.000000000000000000e+00,0.000000000000000000e+00,1.317995776397950236e-01,0.000000000000000000e+00,0.000000000000000000e+00,2.251498253069624056e+01,2.701774807119663002e+00,-2.058971243771110238e-01,0.000000000000000000e+00,0.000000000000000000e+00,0.000000000000000000e+00,1.790676049663919756e+01,-5.969775793275701403e+00
6.399999999999987296e-03,0.000000000000000000e+00,0.000000000000000000e+00,1.329405960229118888e-01,0.000000000000000000e+00,0.000000000000000000e+00,2.310982477709343641e+01,2.705801229623294724e+00,-2.173987322471432893e-01,0.000000000000000000e+00,0.000000000000000000e+00,0.000000000000000000e+00,1.804769580608154556e+01,-6.016984414860592878e+00
6.474999999999986842e-03,0.000000000000000000e+00,0.000000000000000000e+00,1.346888791626129900e-01,0.000000000000000000e+00,0.000000000000000000e+00,2.342548598260853510e+01,2.727045002143385855e+00,-2.305345342977538070e-01,0.000000000000000000e+00,0.000000000000000000e+00,0.000000000000000000e+00,1.825915043401459670e+01,-6.087384616093786782e+00
6.524999999999986540e-03,0.000000000000000000e+00,0.000000000000000000e+00,1.358555276313970217e-01,0.000000000000000000e+00,0.000000000000000000e+00,2.319609187276243034e+01,2.911299768411749422e+00,-1.666576273948619236e-01,0.000000000000000000e+00,0.000000000000000000e+00,0.000000000000000000e+00,1.840086729489275186e+01,-6.134393370011183677e+00
6.549999999999986389e-03,0.000000000000000000e+00,0.000000000000000000e+00,1.364095798818123484e-01,0.000000000000000000e+00,0.000000000000000000e+00,2.302328201328757018e+01,2.666954479435043268e+00,-2.240323522780221510e-01,0.000000000000000000e+00,0.000000000000000000e+00,0.000000000000000000e+00,1.847045192086530463e+01,-6.157145744859051639e+00
6.599999999999986086e-03,0.000000000000000000e+00,0.000000000000000000e+00,1.375510139998915027e-01,0.000000000000000000e+00,0.000000000000000000e+00,2.228125611091281044e+01,2.725120428702263453e+00,-2.156018084912160182e-01,0.000000000000000000e+00,0.000000000000000000e+00,0.000000000000000000e+00,1.861120368365635613e+01,-6.204750477073413428e+00
6.649999999999985784e-03,0.000000000000000000e+00,0.000000000000000000e+00,1.386540288216351335e-01,0.000000000000000000e+00,0.000000000000000000e+00,2.151964192162232692e+01,2.744536866411528386e+00,-2.061581667162891707e-01,0.000000000000000000e+00,0.000000000000000000e+00,0.000000000000000000e+00,1.875206956224178256e+01,-6.251970610841681264e+00
6.699999999999985481e-03,0.000000000000000000e+00,0.000000000000000000e+00,1.397228735703511249e-01,0.000000000000000000e+00,0.000000000000000000e+00,2.085869700093050483e+01,2.740696312053556127e+00,-1.985484140334037306e-01,0.000000000000000000e+00,0.000000000000000000e+00,0.000000000000000000e+00,1.889301515398652143e+01,-6.298952958885547737e+00
6.749999999999985179e-03,0.000000000000000000e+00,0.000000000000000000e+00,1.407599483087770831e-01,0.000000000000000000e+00,0.000000000000000000e+00,2.021602632524130172e+01,2.729348863188385099e+00,-1.937170567653765385e-01,0.000000000000000000e+00,0.000000000000000000e+00,0.000000000000000000e+00,1.903401500967114401e+01,-6.345902075149277621e+00
6.799999999999984876e-03,0.000000000000000000e+00,0.000000000000000000e+00,1.417654994363340415e-01,0.000000000000000000e+00,0.000000000000000000e+00,1.959086202977408675e+01,2.717088046162696724e+00,-1.908885833428802525e-01,0.000000000000000000e+00,0.000000000000000000e+00,0.000000000000000000e+00,1.917505047313627387e+01,-6.392895423800111665e+00
6.849999999999984573e-03,0.000000000000000000e+00,0.000000000000000000e+00,1.427406020661143304e-01,0.000000000000000000e+00,0.000000000000000000e+00,1.901689249166662776e+01,2.704220615965700958e+00,-1.885339656891491245e-01,0.000000000000000000e+00,0.000000000000000000e+00,0.000000000000000000e+00,1.931610801863569549e+01,-6.439912677563384591e+00
6.899999999999984271e-03,0.000000000000000000e+00,0.000000000000000000e+00,1.436894162077297643e-01,0.000000000000000000e+00,0.000000000000000000e+00,1.856820849607650814e+01,2.692437982828474130e+00,-1.848726784526432687e-01,0.000000000000000000e+00,0.000000000000000000e+00,0.000000000000000000e+00,1.945717797476584821e+01,-6.486921385474061275e+00
6.949999999999983968e-03,0.000000000000000000e+00,0.000000000000000000e+00,1.446188617061441584e-01,0.000000000000000000e+00,0.000000000000000000e+00,1.826261478269204019e+01,2.682861431426825316e+00,-1.752245132037537900e-01,0.000000000000000000e+00,0.000000000000000000e+00,0.000000000000000000e+00,1.959825354809244047e+01,-6.533894167745218695e+00
6.999999999999983666e-03,0.000000000000000000e+00,0.000000000000000000e+00,1.454990647912513813e-01,0.000000000000000000e+00,0.000000000000000000e+00,1.693164006395798893e+01,2.628463692452029932e+00,-1.324668493693392790e-01,0.000000000000000000e+00,0.000000000000000000e+00,0.000000000000000000e+00,1.974067344410559954e+01,-6.580847812187652579e+00
7.049999999999983363e-03,0.000000000000000000e+00,0.000000000000000000e+00,1.462616920125237863e-01,0.000000000000000000e+00,0.000000000000000000e+00,1.359314039321948187e+01,2.542133990875771410e+00,-5.775976955757075593e-02,0.000000000000000000e+00,0.000000000000000000e+00,0.000000000000000000e+00,1.988039242665525919e+01,-6.627741680638181698e+00
7.099999999999983061e-03,0.000000000000000000e+00,0.000000000000000000e+00,1.468999212486468697e-01,0.000000000000000000e+00,0.000000000000000000e+00,1.191376946844664175e+01,2.485904327825922078e+00,-2.009298892107532972e-02,0.000000000000000000e+00,0.000000000000000000e+00,0.000000000000000000e+00,2.002254814229515745e+01,-6.674622208790915501e+00
7.149999999999982758e-03,0.000000000000000000e+00,0.000000000000000000e+00,1.474718485271506729e-01,0.000000000000000000e+00,0.000000000000000000e+00,1.097596230754915503e+01,2.462934459752540661e+00,-1.504791946864725283e-02,0.000000000000000000e+00,0.000000000000000000e+00,0.000000000000000000e+00,2.016250547827734252e+01,-6.721547553842778022e+00
7.199999999999982456e-03,0.000000000000000000e+00,0.000000000000000000e+00,1.480285765964609590e-01,0.000000000000000000e+00,0.000000000000000000e+00,1.127803483645111626e+01,2.452707488998997931e+00,-2.428834951495781672e-02,0.000000000000000000e+00,0.000000000000000000e+00,0.000000000000000000e+00,2.030444614384153823e+01,-6.768536644118741563e+00
7.249999999999982153e-03,0.000000000000000000e+00,0.000000000000000000e+00,1.486081908164653131e-01,0.000000000000000000e+00,0.000000000000000000e+00,1.191592762524810567e+01,2.482722757444089989e+00,-6.265452418664993472e-02,0.000000000000000000e+00,0.000000000000000000e+00,0.000000000000000000e+00,2.044459750368126549e+01,-6.815535383875743314e+00
7.299999999999983585e-03,0.000000000000000000e+00,0.000000000000000000e+00,1.492250845818302862e-01,0.000000000000000000e+00,0.000000000000000000e+00,1.212567017519371504e+01,2.623161188682180178e+00,-1.948957837867375531e-01,0.000000000000000000e+00,0.000000000000000000e+00,0.000000000000000000e+00,2.058572181461248007e+01,-6.862606502043971268e+00
7.349999999999985018e-03,0.000000000000000000e+00,0.000000000000000000e+00,1.498252466796387017e-01,0.000000000000000000e+00,0.000000000000000000e+00,1.199929310620584744e+01,2.651879474734061048e+00,-2.089129721367333770e-01,0.000000000000000000e+00,0.000000000000000000e+00,0.000000000000000000e+00,2.072680822659517474e+01,-6.909743623760795650e+00
7.399999999999985582e-03,0.000000000000000000e+00,0.000000000000000000e+00,1.504524471884786940e-01,0.000000000000000000e+00,0.000000000000000000e+00,1.320580798165391023e+01,2.649292922450567467e+00,-1.899918248255965669e-01,0.000000000000000000e+00,0.000000000000000000e+00,0.000000000000000000e+00,2.086813143732756259e+01,-6.956741328491768961e+00
7.449999999999985280e-03,0.000000000000000000e+00,0.000000000000000000e+00,1.511563160749175017e-01,0.000000000000000000e+00,0.000000000000000000e+00,1.509464771353825263e+01,2.629602214825049522e+00,-1.502267436898394593e-01,0.000000000000000000e+00,0.000000000000000000e+00,0.000000000000000000e+00,2.100908744659317762e+01,-7.003661047959818475e+00
7.499999999999984977e-03,0.000000000000000000e+00,0.000000000000000000e+00,1.519644566044448530e-01,0.000000000000000000e+00,0.000000000000000000e+00,1.729863437980006680e+01,2.618977940100419399e+00,-1.204942517130794949e-01,0.000000000000000000e+00,0.000000000000000000e+00,0.000000000000000000e+00,2.115005542744840383e+01,-7.050571072626710567e+00
7.549999999999984675e-03,0.000000000000000000e+00,0.000000000000000000e+00,1.528821469089101104e-01,0.000000000000000000e+00,0.000000000000000000e+00,1.937427674042698911e+01,2.632793348302184366e+00,-1.213090079017647288e-01,0.000000000000000000e+00,0.000000000000000000e+00,0.000000000000000000e+00,2.129103241875479924e+01,-7.097531832647542060e+00
7.599999999999984372e-03,0.000000000000000000e+00,0.000000000000000000e+00,1.538948478199426428e-01,0.000000000000000000e+00,0.000000000000000000e+00,2.107300698390307048e+01,2.665889454076226794e+00,-1.506796304380658980e-01,0.000000000000000000e+00,0.000000000000000000e+00,0.000000000000000000e+00,2.143201615243645364e+01,-7.144553240896242663e+00
7.674999999999983918e-03,0.000000000000000000e+00,0.000000000000000000e+00,1.555472796649726153e-01,0.000000000000000000e+00,0.000000000000000000e+00,2.289075812215701689e+01,2.712688738241501696e+00,-2.070433402308289594e-01,0.000000000000000000e+00,0.000000000000000000e+00,0.000000000000000000e+00,2.164349985479575267e+01,-7.215136585256447077e+00
7.724999999999983616e-03,0.000000000000000000e+00,0.000000000000000000e+00,1.567134144221221936e-01,0.000000000000000000e+00,0.000000000000000000e+00,2.375734187958724775e+01,2.726699868845964936e+00,-2.322252399518638655e-01,0.000000000000000000e+00,0.000000000000000000e+00,0.000000000000000000e+00,2.178450835258124130e+01,-7.262186469595732774e+00
7.774999999999983313e-03,0.000000000000000000e+00,0.000000000000000000e+00,1.579312315226834851e-01,0.000000000000000000e+00,0.000000000000000000e+00,2.495180265095260097e+01,2.727052659428783610e+00,-2.453506913252788968e-01,0.000000000000000000e+00,0.000000000000000000e+00,0.000000000000000000e+00,2.192548508296893672e+01,-7.309311028486527917e+00
7.824999999999983011e-03,0.000000000000000000e+00,0.000000000000000000e+00,1.591679478528809089e-01,0.000000000000000000e+00,0.000000000000000000e+00,2.452717158378383999e+01,2.726365022916497072e+00,-2.542511297240587775e-01,0.000000000000000000e+00,0.000000000000000000e+00,0.000000000000000000e+00,2.206652008506488372e+01,-7.356450462488722586e+00
7.874999999999982708e-03,0.000000000000000000e+00,0.000000000000000000e+00,1.603919072773366816e-01,0.000000000000000000e+00,0.000000000000000000e+00,2.442216986607793316e+01,2.730408532809092570e+00,-2.663072333913831802e-01,0.000000000000000000e+00,0.000000000000000000e+00,0.000000000000000000e+00,2.220747592967788719e+01,-7.403340285956982569e+00
7.924999999999982406e-03,0.000000000000000000e+00,0.000000000000000000e+00,1.615918234286037591e-01,0.000000000000000000e+00,0.000000000000000000e+00,2.358455281448866359e+01,2.735543629545596378e+00,-2.790158925130213352e-01,0.000000000000000000e+00,0.000000000000000000e+00,0.000000000000000000e+00,2.234852705767725212e+01,-7.450199521602185015e+00
7.974999999999982103e-03,0.000000000000000000e+00,0.000000000000000000e+00,1.627556847148063923e-01,0.000000000000000000e+00,0.000000000000000000e+00,2.296154334498433869e+01,2.745101771126852608e+00,-2.855198876314685164e-01,0.000000000000000000e+00,0.000000000000000000e+00,0.000000000000000000e+00,2.248947079314168818e+01,-7.497211747390097436e+00
8.024999999999981801e-03,0.000000000000000000e+00,0.000000000000000000e+00,1.638781513645330146e-01,0.000000000000000000e+00,0.000000000000000000e+00,2.194508176362257856e+01,2.751873423345414960e+00,-2.849905522917178802e-01,0.000000000000000000e+00,0.000000000000000000e+00,0.000000000000000000e+00,2.263053065562542088e+01,-7.544293765209563851e+00
8.074999999999981498e-03,0.000000000000000000e+00,0.000000000000000000e+00,1.649469836200347095e-01,0.000000000000000000e+00,0.000000000000000000e+00,2.080302095909037163e+01,2.752119565871275153e+00,-2.739145148304976685e-01,0.000000000000000000e+00,0.000000000000000000e+00,0.000000000000000000e+00,2.277146847742896796e+01,-7.591364793253601917e+00
8.124999999999981196e-03,0.000000000000000000e+00,0.000000000000000000e+00,1.659609071907346967e-01,0.000000000000000000e+00,0.000000000000000000e+00,1.975723395406960492e+01,2.752993266202710121e+00,-2.578483168710469231e-01,0.000000000000000000e+00,0.000000000000000000e+00,0.000000000000000000e+00,2.291253190957146657e+01,-7.638364141705547894e+00
8.224999999999980591e-03,0.000000000000000000e+00,0.000000000000000000e+00,1.678530499206476179e-01,0.000000000000000000e+00,0.000000000000000000e+00,1.808620345066715984e+01,2.744213267047469262e+00,-2.199982354240564431e-01,0.000000000000000000e+00,0.000000000000000000e+00,0.000000000000000000e+00,2.319446794213124718e+01,-7.732280792872892050e+00
8.324999999999979985e-03,0.000000000000000000e+00,0.000000000000000000e+00,1.695803385595471557e-01,0.000000000000000000e+00,0.000000000000000000e+00,1.645893607511024115e+01,2.729443528583570533e+00,-1.978156103129054544e-01,0.000000000000000000e+00,0.000000000000000000e+00,0.000000000000000000e+00,2.347653185741021531e+01,-7.826222010750687907e+00
8.374999999999979683e-03,0.000000000000000000e+00,0.000000000000000000e+00,1.703955657404492563e-01,0.000000000000000000e+00,0.000000000000000000e+00,1.751068907986398671e+01,2.746188236144725181e+00,-2.033786888461062425e-01,0.000000000000000000e+00,0.000000000000000000e+00,0.000000000000000000e+00,2.361713014762205987e+01,-7.872092994705682578e+00
8.381249999999978995e-03,0.000000000000000000e+00,0.000000000000000000e+00,1.705009707724549073e-01,0.000000000000000000e+00,0.000000000000000000e+00,1.775655970189906441e+01,2.753486912799204767e+00,-2.068853591115966395e-01,0.000000000000000000e+00,0.000000000000000000e+00,0.000000000000000000e+00,2.363545174630547052e+01,-7.877930405800531943e+00
8.424999999999974176e-03,0.000000000000000000e+00,0.000000000000000000e+00,1.712850265070429978e-01,0.000000000000000000e+00,0.000000000000000000e+00,1.770744107812792834e+01,2.768878207117136281e+00,-1.814043508780440184e-01,0.000000000000000000e+00,0.000000000000000000e+00,0.000000000000000000e+00,2.375836421128525089e+01,-7.920515676557783102e+00
8.474999999999973874e-03,0.000000000000000000e+00,0.000000000000000000e+00,1.721747572001734450e-01,0.000000000000000000e+00,0.000000000000000000e+00,1.792257718557849344e+01,2.738998129330218578e+00,-1.725104725351707669e-01,0.000000000000000000e+00,0.000000000000000000e+00,0.000000000000000000e+00,2.389954205616460570e+01,-7.967932788165851932e+00
8.524999999999975306e-03,0.000000000000000000e+00,0.000000000000000000e+00,1.730730096858399680e-01,0.000000000000000000e+00,0.000000000000000000e+00,1.818952230939332537e+01,2.696329389450437208e+00,-1.873873000645921161e-01,0.000000000000000000e+00,0.000000000000000000e+00,0.000000000000000000e+00,2.404049726521711960e+01,-8.014525981801117638e+00
8.587499999999977096e-03,0.000000000000000000e+00,0.000000000000000000e+00,1.742293913717861964e-01,0.000000000000000000e+00,0.000000000000000000e+00,1.900417478374408731e+01,2.560581887815727153e+00,-3.174169217381769825e-01,0.000000000000000000e+00,0.000000000000000000e+00,0.000000000000000000e+00,2.421672509776136906e+01,-8.072788602819377601e+00
8.637499999999978528e-03,0.000000000000000000e+00,0.000000000000000000e+00,1.751846474311836988e-01,0.000000000000000000e+00,0.000000000000000000e+00,1.918452998746126781e+01,2.591693640902756002e+00,-3.339042319914228840e-01,0.000000000000000000e+00,0.000000000000000000e+00,0.000000000000000000e+00,2.435771657048828587e+01,-8.120326747381170662e+00
8.687499999999979960e-03,0.000000000000000000e+00,0.000000000000000000e+00,1.761404916269726784e-01,0.000000000000000000e+00,0.000000000000000000e+00,1.907433995486052680e+01,2.616416813726856638e+00,-2.985522004092610593e-01,0.000000000000000000e+00,0.000000000000000000e+00,0.000000000000000000e+00,2.449871218254846283e+01,-8.167232332938320738e+00
8.737499999999981393e-03,0.000000000000000000e+00,0.000000000000000000e+00,1.771110788511004452e-01,0.000000000000000000e+00,0.000000000000000000e+00,1.974163793248983012e+01,2.638621464053529930e+00,-2.894817873058446178e-01,0.000000000000000000e+00,0.000000000000000000e+00,0.000000000000000000e+00,2.463971066882897887e+01,-8.214060974212616273e+00
8.787499999999982825e-03,0.000000000000000000e+00,0.000000000000000000e+00,1.781149055359950439e-01,0.000000000000000000e+00,0.000000000000000000e+00,2.030202268962396062e+01,2.663388095412064338e+00,-2.704619978418755788e-01,0.000000000000000000e+00,0.000000000000000000e+00,0.000000000000000000e+00,2.478071109553451734e+01,-8.260942986106698527e+00
8.862499999999983238e-03,0.000000000000000000e+00,0.000000000000000000e+00,1.796706412122948959e-01,0.000000000000000000e+00,0.000000000000000000e+00,2.102648460133880803e+01,2.708912474240685153e+00,-2.709161342280865248e-01,0.000000000000000000e+00,0.000000000000000000e+00,0.000000000000000000e+00,2.499221355378443477e+01,-8.331405579857843691e+00
8.912499999999982936e-03,0.000000000000000000e+00,0.000000000000000000e+00,1.807303028510018894e-01,0.000000000000000000e+00,0.000000000000000000e+00,2.135852830017863369e+01,2.724431717545192200e+00,-2.792105378713898300e-01,0.000000000000000000e+00,0.000000000000000000e+00,0.000000000000000000e+00,2.513328467348397055e+01,-8.378466837464509709e+00
8.962499999999982633e-03,0.000000000000000000e+00,0.000000000000000000e+00,1.817971496512073293e-01,0.000000000000000000e+00,0.000000000000000000e+00,2.131818194898659158e+01,2.716456563315228223e+00,-2.930640743050051955e-01,0.000000000000000000e+00,0.000000000000000000e+00,0.000000000000000000e+00,2.527421710916350861e+01,-8.425521814823108357e+00
9.012499999999982331e-03,0.000000000000000000e+00,0.000000000000000000e+00,1.828642928786347599e-01,0.000000000000000000e+00,0.000000000000000000e+00,2.136506560442491676e+01,2.669563301191054894e+00,-3.403180232573363995e-01,0.000000000000000000e+00,0.000000000000000000e+00,0.000000000000000000e+00,2.541528111798273670e+01,-8.472581941649641735e+00
9.062499999999982028e-03,0.000000000000000000e+00,0.000000000000000000e+00,1.839271155157418403e-01,0.000000000000000000e+00,0.000000000000000000e+00,2.115089370852777506e+01,2.658685367027808777e+00,-3.546593359941257462e-01,0.000000000000000000e+00,0.000000000000000000e+00,0.000000000000000000e+00,2.555622062920738458e+01,-8.519578564853780733e+00
9.112499999999981726e-03,0.000000000000000000e+00,0.000000000000000000e+00,1.849843133367104209e-01,0.000000000000000000e+00,0.000000000000000000e+00,2.113385494319172864e+01,2.650067424139962213e+00,-3.672080191866386456e-01,0.000000000000000000e+00,0.000000000000000000e+00,0.000000000000000000e+00,2.569727766185948425e+01,-8.566525349560720315e+00
9.162499999999981423e-03,0.000000000000000000e+00,0.000000000000000000e+00,1.860287395376805653e-01,0.000000000000000000e+00,0.000000000000000000e+00,2.064773871232741342e+01,2.656095619705978184e+00,-3.702229323084279544e-01,0.000000000000000000e+00,0.000000000000000000e+00,0.000000000000000000e+00,2.583822399899440114e+01,-8.613506306179573357e+00
9.212499999999981121e-03,0.000000000000000000e+00,0.000000000000000000e+00,1.870573739803841617e-01,0.000000000000000000e+00,0.000000000000000000e+00,2.049274875650710115e+01,2.664002891685304242e+00,-3.723174922307735391e-01,0.000000000000000000e+00,0.000000000000000000e+00,0.000000000000000000e+00,2.597927439570372243e+01,-8.660482749491649201e+00
9.237499999999981837e-03,0.000000000000000000e+00,0.000000000000000000e+00,1.875490676361622755e-01,0.000000000000000000e+00,0.000000000000000000e+00,2.053411414207717200e+01,2.690602467629671146e+00,-3.899170139983613170e-01,0.000000000000000000e+00,0.000000000000000000e+00,0.000000000000000000e+00,2.604956072556225521e+01,-8.683479736668079596e+00
9.287499999999983269e-03,0.000000000000000000e+00,0.000000000000000000e+00,1.885671092843704266e-01,0.000000000000000000e+00,0.000000000000000000e+00,1.985557500348923199e+01,2.698011059807691403e+00,-3.615445437602370360e-01,0.000000000000000000e+00,0.000000000000000000e+00,0.000000000000000000e+00,2.619032563204855180e+01,-8.731042826729257911e+00
9.337499999999984701e-03,0.000000000000000000e+00,0.000000000000000000e+00,1.895575628492994213e-01,0.000000000000000000e+00,0.000000000000000000e+00,1.939064897320133696e+01,2.681559381498490158e+00,-3.476177783172608171e-01,0.000000000000000000e+00,0.000000000000000000e+00,0.000000000000000000e+00,2.633118670687594687e+01,-8.777938122256962572e+00
9.387499999999986133e-03,0.000000000000000000e+00,0.000000000000000000e+00,1.905337743573267684e-01,0.000000000000000000e+00,0.000000000000000000e+00,1.916740863815247664e+01,2.665104401274995372e+00,-3.446214372844993989e-01,0.000000000000000000e+00,0.000000000000000000e+00,0.000000000000000000e+00,2.647211589295348588e+01,-8.824771628363073717e+00
9.437499999999987566e-03,0.000000000000000000e+00,0.000000000000000000e+00,1.915043095104825566e-01,0.000000000000000000e+00,0.000000000000000000e+00,1.906980922197653427e+01,2.655054354473592504e+00,-3.451200661343432063e-01,0.000000000000000000e+00,0.000000000000000000e+00,0.000000000000000000e+00,2.661309232320371621e+01,-8.871775073758714214e+00
9.512499999999987979e-03,0.000000000000000000e+00,0.000000000000000000e+00,1.929576600567722566e-01,0.000000000000000000e+00,0.000000000000000000e+00,1.909426406210737781e+01,2.648580624689521823e+00,-3.471398226757289041e-01,0.000000000000000000e+00,0.000000000000000000e+00,0.000000000000000000e+00,2.682460465043647346e+01,-8.942398290393480664e+00
9.562499999999987677e-03,0.000000000000000000e+00,0.000000000000000000e+00,1.939320611218058599e-01,0.000000000000000000e+00,0.000000000000000000e+00,1.981171145522477772e+01,2.648812671842196931e+00,-3.509822562959885595e-01,0.000000000000000000e+00,0.000000000000000000e+00,0.000000000000000000e+00,2.696687967656645313e+01,-8.989525198173531351e+00
9.612499999999987374e-03,0.000000000000000000e+00,0.000000000000000000e+00,1.949084574153034932e-01,0.000000000000000000e+00,0.000000000000000000e+00,1.930097464341276847e+01,2.644939436745163519e+00,-3.509859713623407207e-01,0.000000000000000000e+00,0.000000000000000000e+00,0.000000000000000000e+00,2.710663931532698712e+01,-9.036459451717188784e+00
9.662499999999987071e-03,0.000000000000000000e+00,0.000000000000000000e+00,1.958950487881703784e-01,0.000000000000000000e+00,0.000000000000000000e+00,2.011500758094564389e+01,2.648626712381663584e+00,-3.569721591775024128e-01,0.000000000000000000e+00,0.000000000000000000e+00,0.000000000000000000e+00,2.724883919439075797e+01,-9.083450127903414995e+00
9.712499999999986769e-03,0.000000000000000000e+00,0.000000000000000000e+00,1.968879724693974320e-01,0.000000000000000000e+00,0.000000000000000000e+00,1.964276514327177381e+01,2.700041745991374142e+00,-3.086668174588799163e-01,0.000000000000000000e+00,0.000000000000000000e+00,0.000000000000000000e+00,2.738868410467989634e+01,-9.130391149495078906e+00
9.762499999999986466e-03,0.000000000000000000e+00,0.000000000000000000e+00,1.978914528720579491e-01,0.000000000000000000e+00,0.000000000000000000e+00,2.046058715134727279e+01,2.740019301407733643e+00,-2.997966806851364296e-01,0.000000000000000000e+00,0.000000000000000000e+00,0.000000000000000000e+00,2.753079136411897565e+01,-9.177410108873157668e+00
9.812499999999986164e-03,0.000000000000000000e+00,0.000000000000000000e+00,1.989026691242939127e-01,0.000000000000000000e+00,0.000000000000000000e+00,2.002016601244954686e+01,2.746241306438755192e+00,-2.986295862821913283e-01,0.000000000000000000e+00,0.000000000000000000e+00,0.000000000000000000e+00,2.767073391979540276e+01,-9.224412357532916218e+00
9.862499999999985861e-03,0.000000000000000000e+00,0.000000000000000000e+00,1.999221581776003953e-01,0.000000000000000000e+00,0.000000000000000000e+00,2.073054222195903407e+01,2.747190020721324899e+00,-3.164071506896020125e-01,0.000000000000000000e+00,0.000000000000000000e+00,0.000000000000000000e+00,2.781274043943279750e+01,-9.271447064612644340e+00
9.912499999999985559e-03,0.000000000000000000e+00,0.000000000000000000e+00,2.009392467708444041e-01,0.000000000000000000e+00,0.000000000000000000e+00,1.998097155254927770e+01,2.742518294170719795e+00,-3.341921546219367989e-01,0.000000000000000000e+00,0.000000000000000000e+00,0.000000000000000000e+00,2.795278523398519965e+01,-9.318450465717820208e+00
9.962499999999985256e-03,0.000000000000000000e+00,0.000000000000000000e+00,2.019420144227606906e-01,0.000000000000000000e+00,0.000000000000000000e+00,2.010521176009079625e+01,2.737239910255106157e+00,-3.455765234436238842e-01,0.000000000000000000e+00,0.000000000000000000e+00,0.000000000000000000e+00,2.809468932288514154e+01,-9.365457642516959780e+00
1.006249999999998465e-02,0.000000000000000000e+00,0.000000000000000000e+00,2.039459779960064445e-01,0.000000000000000000e+00,0.000000000000000000e+00,1.999302566859909902e+01,2.723967415542700721e+00,-3.529674952901997176e-01,0.000000000000000000e+00,0.000000000000000000e+00,0.000000000000000000e+00,2.837585848482825668e+01,-9.459441624749901578e+00
1.016249999999998405e-02,0.000000000000000000e+00,0.000000000000000000e+00,2.059759065784496634e-01,0.000000000000000000e+00,0.000000000000000000e+00,2.058836725218480268e+01,2.712681127112660295e+00,-3.741924623275338369e-01,0.000000000000000000e+00,0.000000000000000000e+00,0.000000000000000000e+00,2.865859887577128973e+01,-9.553459596478948157e+00
1.021249999999998374e-02,0.000000000000000000e+00,0.000000000000000000e+00,2.069659547737374150e-01,0.000000000000000000e+00,0.000000000000000000e+00,2.070337033660793935e+01,2.741738245688085218e+00,-3.942859571213926384e-01,0.000000000000000000e+00,0.000000000000000000e+00,0.000000000000000000e+00,2.879860774601027629e+01,-9.599324442454003403e+00
1.026249999999998344e-02,0.000000000000000000e+00,0.000000000000000000e+00,2.080405816453668733e-01,0.000000000000000000e+00,0.000000000000000000e+00,2.105163587497751365e+01,2.758922058011163081e+00,-3.825856950968840597e-01,0.000000000000000000e+00,0.000000000000000000e+00,0.000000000000000000e+00,2.894112346780647727e+01,-9.648543726875704607e+00
1.031249999999998314e-02,0.000000000000000000e+00,0.000000000000000000e+00,2.090444999121638114e-01,0.000000000000000000e+00,0.000000000000000000e+00,2.000635785386501908e+01,2.697498150219535873e+00,-3.693207600941679214e-01,0.000000000000000000e+00,0.000000000000000000e+00,0.000000000000000000e+00,2.908019798368015785e+01,-9.694525403417994625e+00
1.033749999999998385e-02,0.000000000000000000e+00,0.000000000000000000e+00,2.095349325146547426e-01,0.000000000000000000e+00,0.000000000000000000e+00,2.135555133080669066e+01,2.705270258040911813e+00,-4.029933731544423359e-01,0.000000000000000000e+00,0.000000000000000000e+00,0.000000000000000000e+00,2.915258690475181425e+01,-9.717064666067020795e+00
1.036249999999998457e-02,0.000000000000000000e+00,0.000000000000000000e+00,2.100790412749570235e-01,0.000000000000000000e+00,0.000000000000000000e+00,2.063592018639698011e+01,2.717080553506895146e+00,-4.130015596342023199e-01,0.000000000000000000e+00,0.000000000000000000e+00,0.000000000000000000e+00,2.922159570467203338e+01,-9.741766696744550202e+00
1.041249999999998600e-02,0.000000000000000000e+00,0.000000000000000000e+00,2.111163467550284945e-01,0.000000000000000000e+00,0.000000000000000000e+00,2.040557477263531894e+01,2.695128574716930459e+00,-3.993431902940094980e-01,0.000000000000000000e+00,0.000000000000000000e+00,0.000000000000000000e+00,2.936288026947356400e+01,-9.788974670954738500e+00
1.046249999999998744e-02,0.000000000000000000e+00,0.000000000000000000e+00,2.121502440338108308e-01,0.000000000000000000e+00,0.000000000000000000e+00,2.047775812363490289e+01,2.675498972311916912e+00,-3.968724775226507018e-01,0.000000000000000000e+00,0.000000000000000000e+00,0.000000000000000000e+00,2.950408031970946254e+01,-9.835824198489214965e+00
1.051249999999998887e-02,0.000000000000000000e+00,0.000000000000000000e+00,2.131849303782824556e-01,0.000000000000000000e+00,0.000000000000000000e+00,2.056596412969410181e+01,2.658839865712428807e+00,-4.063589532934270276e-01,0.000000000000000000e+00,0.000000000000000000e+00,0.000000000000000000e+00,2.964521769812933982e+01,-9.882550408504068074e+00
1.056249999999999030e-02,0.000000000000000000e+00,0.000000000000000000e+00,2.142211089143912506e-01,0.000000000000000000e+00,0.000000000000000000e+00,2.062156651165138399e+01,2.661453011811887759e+00,-4.193758319778501664e-01,0.000000000000000000e+00,0.000000000000000000e+00,0.000000000000000000e+00,2.978630899820832667e+01,-9.929407314621919056e+00
1.061249999999999000e-02,0.000000000000000000e+00,0.000000000000000000e+00,2.152526684157693715e-01,0.000000000000000000e+00,0.000000000000000000e+00,2.071726088740961202e+01,2.668372133130006763e+00,-4.268780592276484875e-01,0.000000000000000000e+00,0.000000000000000000e+00,0.000000000000000000e+00,2.992712585999084851e+01,-9.976340862522365072e+00
1.066249999999998969e-02,0.000000000000000000e+00,0.000000000000000000e+00,2.162872335970876247e-01,0.000000000000000000e+00,0.000000000000000000e+00,2.061071594922242411e+01,2.670463273485847999e+00,-4.389611963330659061e-01,0.000000000000000000e+00,0.000000000000000000e+00,0.000000000000000000e+00,3.006842566346688628e+01,-1.002352544022146752e+01
1.071249999999998939e-02,0.000000000000000000e+00,0.000000000000000000e+00,2.173146879202881021e-01,0.000000000000000000e+00,0.000000000000000000e+00,2.052707858488787807e+01,2.665882231572190619e+00,-4.365412872078925366e-01,0.000000000000000000e+00,0.000000000000000000e+00,0.000000000000000000e+00,3.020903435916680735e+01,-1.007050945990073920e+01
1.076249999999998909e-02,0.000000000000000000e+00,0.000000000000000000e+00,2.183438731755787676e-01,0.000000000000000000e+00,0.000000000000000000e+00,2.061071555753910545e+01,2.662072438116294126e+00,-4.383180726804642990e-01,0.000000000000000000e+00,0.000000000000000000e+00,0.000000000000000000e+00,3.035049586609129690e+01,-1.011753893579993147e+01
1.081249999999998879e-02,0.000000000000000000e+00,0.000000000000000000e+00,2.193722943382033219e-01,0.000000000000000000e+00,0.000000000000000000e+00,2.054836839554357653e+01,2.664962011413261056e+00,-4.445873473477101601e-01,0.000000000000000000e+00,0.000000000000000000e+00,0.000000000000000000e+00,3.049098211011005333e+01,-1.016445846471464876e+01
1.086249999999998848e-02,0.000000000000000000e+00,0.000000000000000000e+00,2.204050840697374947e-01,0.000000000000000000e+00,0.000000000000000000e+00,2.074580519085531449e+01,2.665801436029951788e+00,-4.473481002193623879e-01,0.000000000000000000e+00,0.000000000000000000e+00,0.000000000000000000e+00,3.063253305026690043e+01,-1.021146754620521691e+01
1.091249999999998818e-02,0.000000000000000000e+00,0.000000000000000000e+00,2.214375716882292233e-01,0.000000000000000000e+00,0.000000000000000000e+00,2.056816014420685335e+01,2.665963547065052008e+00,-4.502443158370537102e-01,0.000000000000000000e+00,0.000000000000000000e+00,0.000000000000000000e+00,3.077295750032923038e+01,-1.025845273085903564e+01
1.096249999999998788e-02,0.000000000000000000e+00,0.000000000000000000e+00,2.224740056572233615e-01,0.000000000000000000e+00,0.000000000000000000e+00,2.087635721547509249e+01,2.668584991585518651e+00,-4.586378555454003747e-01,0.000000000000000000e+00,0.000000000000000000e+00,0.000000000000000000e+00,3.091454722869167071e+01,-1.030548724601989363e+01
1.101249999999998758e-02,0.000000000000000000e+00,0.000000000000000000e+00,2.234570981804331891e-01,0.000000000000000000e+00,0.000000000000000000e+00,1.846967277666567853e+01,3.012018368414703939e+00,-8.073812516820312313e-01,0.000000000000000000e+00,0.000000000000000000e+00,0.000000000000000000e+00,3.105495191308877878e+01,-1.035262382851342622e+01
1.106249999999998727e-02,0.000000000000000000e+00,0.000000000000000000e+00,2.242623169973973762e-01,0.000000000000000000e+00,0.000000000000000000e+00,1.373398414355126107e+01,3.155398810716149693e+00,-9.912526610324297049e-01,0.000000000000000000e+00,0.000000000000000000e+00,0.000000000000000000e+00,3.119654580120024079e+01,-1.040010982520133176e+01
1.116249999999998667e-02,0.000000000000000000e+00,0.000000000000000000e+00,2.252819869862417168e-01,0.000000000000000000e+00,0.000000000000000000e+00,6.674241514984022849e+00,2.858485938677908678e+00,-7.424624490665302501e-01,0.000000000000000000e+00,0.000000000000000000e+00,0.000000000000000000e+00,3.147796233866960236e+01,-1.049460638473610707e+01
1.126249999999998606e-02,0.000000000000000000e+00,0.000000000000000000e+00,2.260154207551249850e-01,0.000000000000000000e+00,0.000000000000000000e+00,7.943798296075935461e+00,2.539230121209796742e+00,-4.759027117019405950e-01,0.000000000000000000e+00,0.000000000000000000e+00,0.000000000000000000e+00,3.176052819142103090e+01,-1.058773743184814542e+01
1.136249999999998546e-02,0.000000000000000000e+00,0.000000000000000000e+00,2.270491430846649505e-01,0.000000000000000000e+00,0.000000000000000000e+00,1.275054978475393241e+01,2.406394826137824960e+00,-3.917609062455058577e-01,0.000000000000000000e+00,0.000000000000000000e+00,0.000000000000000000e+00,3.204198226111862624e+01,-1.068102809948652698e+01
1.146249999999998485e-02,0.000000000000000000e+00,0.000000000000000000e+00,2.286885368672810226e-01,0.000000000000000000e+00,0.000000000000000000e+00,2.001111133862155711e+01,2.446934453054594005e+00,-4.288903531717336848e-01,0.000000000000000000e+00,0.000000000000000000e+00,0.000000000000000000e+00,3.232450659493407130e+01,-1.077536901067350250e+01
1.151249999999998455e-02,0.000000000000000000e+00,0.000000000000000000e+00,2.297235766669473711e-01,0.000000000000000000e+00,0.000000000000000000e+00,2.299090347587013383e+01,2.530461038081330827e+00,-4.735425527910504528e-01,0.000000000000000000e+00,0.000000000000000000e+00,0.000000000000000000e+00,3.246465173859667175e+01,-1.082139866850710774e+01
1.153749999999998527e-02,0.000000000000000000e+00,0.000000000000000000e+00,2.302923386890153024e-01,0.000000000000000000e+00,0.000000000000000000e+00,2.523552875667038364e+01,2.622907806034676881e+00,-5.123058223703094161e-01,0.000000000000000000e+00,0.000000000000000000e+00,0.000000000000000000e+00,3.253610488329097450e+01,-1.084451370183910335e+01
1.156249999999998598e-02,0.000000000000000000e+00,0.000000000000000000e+00,2.309534467337657215e-01,0.000000000000000000e+00,0.000000000000000000e+00,2.567956971962003720e+01,2.725064315628110911e+00,-5.070743453306449933e-01,0.000000000000000000e+00,0.000000000000000000e+00,0.000000000000000000e+00,3.260609580181752420e+01,-1.087015573472030638e+01
1.161249999999998742e-02,0.000000000000000000e+00,0.000000000000000000e+00,2.322884699402791298e-01,0.000000000000000000e+00,0.000000000000000000e+00,2.736892820362668743e+01,2.740069403012931559e+00,-5.327238469901873774e-01,0.000000000000000000e+00,0.000000000000000000e+00,0.000000000000000000e+00,3.274739271825196596e+01,-1.091790373721903151e+01
1.166249999999998885e-02,0.000000000000000000e+00,0.000000000000000000e+00,2.336928875929220883e-01,0.000000000000000000e+00,0.000000000000000000e+00,2.863094279123245300e+01,2.727605930774246179e+00,-5.585188381115707701e-01,0.000000000000000000e+00,0.000000000000000000e+00,0.000000000000000000e+00,3.288858237299258036e+01,-1.096437444081749213e+01
1.171249999999999028e-02,0.000000000000000000e+00,0.000000000000000000e+00,2.351384317549448377e-01,0.000000000000000000e+00,0.000000000000000000e+00,2.927959636446420788e+01,2.742888667954242354e+00,-5.864767750785393474e-01,0.000000000000000000e+00,0.000000000000000000e+00,0.000000000000000000e+00,3.302969480680263814e+01,-1.101061998207093495e+01
1.176249999999999171e-02,0.000000000000000000e+00,0.000000000000000000e+00,2.365865941882744072e-01,0.000000000000000000e+00,0.000000000000000000e+00,2.907964199566292152e+01,2.784067859003037881e+00,-6.097103303672936070e-01,0.000000000000000000e+00,0.000000000000000000e+00,0.000000000000000000e+00,3.317075251710321027e+01,-1.105739134625046383e+01
1.181249999999999141e-02,0.000000000000000000e+00,0.000000000000000000e+00,2.379680152699338858e-01,0.000000000000000000e+00,0.000000000000000000e+00,2.630758143311371811e+01,2.797772559962836691e+00,-5.808376901746736820e-01,0.000000000000000000e+00,0.000000000000000000e+00,0.000000000000000000e+00,3.331071747249907133e+01,-1.110450088013404368e+01
1.186249999999999284e-02,0.000000000000000000e+00,0.000000000000000000e+00,2.391505300610942686e-01,0.000000000000000000e+00,0.000000000000000000e+00,2.089735217033961234e+01,3.058186606143392883e+00,-4.321611295931270802e-01,0.000000000000000000e+00,0.000000000000000000e+00,0.000000000000000000e+00,3.345285464749238002e+01,-1.115145170159200738e+01
1.191249999999999427e-02,0.000000000000000000e+00,0.000000000000000000e+00,2.399460666849934365e-01,0.000000000000000000e+00,0.000000000000000000e+00,1.312687613405355513e+01,2.774022462012776025e+00,-3.405191093264793856e-01,0.000000000000000000e+00,0.000000000000000000e+00,0.000000000000000000e+00,3.359403293979919169e+01,-1.119919800062096016e+01
1.196249999999999571e-02,0.000000000000000000e+00,0.000000000000000000e+00,2.404293906809738812e-01,0.000000000000000000e+00,0.000000000000000000e+00,8.549267546922779459e+00,2.484204573225643475e+00,-3.649664242766005318e-01,0.000000000000000000e+00,0.000000000000000000e+00,0.000000000000000000e+00,3.373501709269459070e+01,-1.124602699575669362e+01
1.201249999999999714e-02,0.000000000000000000e+00,0.000000000000000000e+00,2.407615638118480728e-01,0.000000000000000000e+00,0.000000000000000000e+00,6.721615161672705341e+00,2.347733395452490157e+00,-4.140569592662474152e-01,0.000000000000000000e+00,0.000000000000000000e+00,0.000000000000000000e+00,3.387594543100187394e+01,-1.129247887076193457e+01
1.206249999999999857e-02,0.000000000000000000e+00,0.000000000000000000e+00,2.410593702942591399e-01,0.000000000000000000e+00,0.000000000000000000e+00,6.926170131134158581e+00,2.337620526613049865e+00,-4.350922296982658311e-01,0.000000000000000000e+00,0.000000000000000000e+00,0.000000000000000000e+00,3.401687330871132531e+01,-1.133913065472419390e+01
1.211250000000000000e-02,0.000000000000000000e+00,0.000000000000000000e+00,2.414122146642614652e-01,0.000000000000000000e+00,0.000000000000000000e+00,8.704879679976510687e+00,2.365926999261846131e+00,-4.373300480142953695e-01,0.000000000000000000e+00,0.000000000000000000e+00,0.000000000000000000e+00,3.415780348783074771e+01,-1.138610807996391650e+01
1.216250000000000143e-02,0.000000000000000000e+00,0.000000000000000000e+00,2.418892431823698452e-01,0.000000000000000000e+00,0.000000000000000000e+00,1.155528440634390641e+01,2.399737508905879668e+00,-4.363464402955485877e-01,0.000000000000000000e+00,0.000000000000000000e+00,0.000000000000000000e+00,3.429873769744191492e+01,-1.143320142669335837e+01
1.221250000000000287e-02,0.000000000000000000e+00,0.000000000000000000e+00,2.425364428313888931e-01,0.000000000000000000e+00,0.000000000000000000e+00,1.543864338015358584e+01,2.415913283726253358e+00,-4.554531214423248042e-01,0.000000000000000000e+00,0.000000000000000000e+00,0.000000000000000000e+00,3.443967692648784151e+01,-1.148022889808471270e+01
1.226250000000000256e-02,0.000000000000000000e+00,0.000000000000000000e+00,2.433829487832652738e-01,0.000000000000000000e+00,0.000000000000000000e+00,1.845773144129275778e+01,2.444211588520914802e+00,-4.827988700111830456e-01,0.000000000000000000e+00,0.000000000000000000e+00,0.000000000000000000e+00,3.457987762177340585e+01,-1.152718373350668735e+01
1.231250000000000226e-02,0.000000000000000000e+00,0.000000000000000000e+00,2.444261667793399817e-01,0.000000000000000000e+00,0.000000000000000000e+00,2.323628861907330645e+01,2.499715763587917916e+00,-5.216706753900807181e-01,0.000000000000000000e+00,0.000000000000000000e+00,0.000000000000000000e+00,3.472157447035287703e+01,-1.157413891946872653e+01
1.236250000000000196e-02,0.000000000000000000e+00,0.000000000000000000e+00,2.456415330676152697e-01,0.000000000000000000e+00,0.000000000000000000e+00,2.541603362547891010e+01,2.567814951505698495e+00,-5.480856390129738021e-01,0.000000000000000000e+00,0.000000000000000000e+00,0.000000000000000000e+00,3.486196757972727056e+01,-1.162114074935967700e+01
1.241250000000000166e-02,0.000000000000000000e+00,0.000000000000000000e+00,2.469892416307970517e-01,0.000000000000000000e+00,0.000000000000000000e+00,2.846077328880264190e+01,2.643416385498901011e+00,-5.853031217962600952e-01,0.000000000000000000e+00,0.000000000000000000e+00,0.000000000000000000e+00,3.500349553550364590e+01,-1.166820675895919557e+01
1.246250000000000135e-02,0.000000000000000000e+00,0.000000000000000000e+00,2.484208907888216245e-01,0.000000000000000000e+00,0.000000000000000000e+00,2.884087747548804970e+01,2.701790436295309572e+00,-6.100566587558349241e-01,0.000000000000000000e+00,0.000000000000000000e+00,0.000000000000000000e+00,3.514403679651493206e+01,-1.171530484876638845e+01
1.251250000000000105e-02,0.000000000000000000e+00,0.000000000000000000e+00,2.498873634318016235e-01,0.000000000000000000e+00,0.000000000000000000e+00,2.978935642483458324e+01,2.753570872378113599e+00,-6.396282484650170908e-01,0.000000000000000000e+00,0.000000000000000000e+00,0.000000000000000000e+00,3.528543488251391835e+01,-1.176239911774812796e+01
1.256250000000000075e-02,0.000000000000000000e+00,0.000000000000000000e+00,2.513423495404931152e-01,0.000000000000000000e+00,0.000000000000000000e+00,2.844192537006462018e+01,2.780926030939068649e+00,-6.516791013363010254e-01,0.000000000000000000e+00,0.000000000000000000e+00,0.000000000000000000e+00,3.542608990629554455e+01,-1.180946737849277106e+01
1.261250000000000045e-02,0.000000000000000000e+00,0.000000000000000000e+00,2.527461627142916223e-01,0.000000000000000000e+00,0.000000000000000000e+00,2.768462349022298952e+01,2.799434161206435956e+00,-6.653762484594597515e-01,0.000000000000000000e+00,0.000000000000000000e+00,0.000000000000000000e+00,3.556738841382981064e+01,-1.185650524040402942e+01
1.266250000000000014e-02,0.000000000000000000e+00,0.000000000000000000e+00,2.540704992511911842e-01,0.000000000000000000e+00,0.000000000000000000e+00,2.531544347888480928e+01,2.791935024855988878e+00,-6.637676085060550957e-01,0.000000000000000000e+00,0.000000000000000000e+00,0.000000000000000000e+00,3.570813053100553702e+01,-1.190352966017652392e+01
1.271249999999999984e-02,0.000000000000000000e+00,0.000000000000000000e+00,2.552992835675481631e-01,0.000000000000000000e+00,0.000000000000000000e+00,2.381243536271666983e+01,2.777011536704297789e+00,-6.647791970968605080e-01,0.000000000000000000e+00,0.000000000000000000e+00,0.000000000000000000e+00,3.584935292898769887e+01,-1.195054575557307253e+01
1.281249999999999924e-02,0.000000000000000000e+00,0.000000000000000000e+00,2.574744635203276011e-01,0.000000000000000000e+00,0.000000000000000000e+00,1.972063665992398285e+01,2.711885381251937233e+00,-6.472346151945327364e-01,0.000000000000000000e+00,0.000000000000000000e+00,0.000000000000000000e+00,3.613117540975736119e+01,-1.204454032326017021e+01
1.291249999999999863e-02,0.000000000000000000e+00,0.000000000000000000e+00,2.593558311399410954e-01,0.000000000000000000e+00,0.000000000000000000e+00,1.787453588107369384e+01,2.644072038753400022e+00,-6.330379918617992097e-01,0.000000000000000000e+00,0.000000000000000000e+00,0.000000000000000000e+00,3.641330088995621139e+01,-1.213847400431963308e+01
1.301249999999999803e-02,0.000000000000000000e+00,0.000000000000000000e+00,2.611028242102845787e-01,0.000000000000000000e+00,0.000000000000000000e+00,1.708368003517716716e+01,2.589442183221608573e+00,-6.195725858724269175e-01,0.000000000000000000e+00,0.000000000000000000e+00,0.000000000000000000e+00,3.669521881617503567e+01,-1.223239077058422453e+01
1.311249999999999742e-02,0.000000000000000000e+00,0.000000000000000000e+00,2.628948049606403270e-01,0.000000000000000000e+00,0.000000000000000000e+00,1.873092070427892608e+01,2.570764333558634540e+00,-6.249457991155693559e-01,0.000000000000000000e+00,0.000000000000000000e+00,0.000000000000000000e+00,3.697726491001935045e+01,-1.232633171498106606e+01
1.321249999999999682e-02,0.000000000000000000e+00,0.000000000000000000e+00,2.648493382233752524e-01,0.000000000000000000e+00,0.000000000000000000e+00,2.037793781474006849e+01,2.579207021244312781e+00,-6.351851050137677923e-01,0.000000000000000000e+00,0.000000000000000000e+00,0.000000000000000000e+00,3.725924842086292443e+01,-1.242031539650329108e+01
1.331249999999999621e-02,0.000000000000000000e+00,0.000000000000000000e+00,2.670069034571771471e-01,0.000000000000000000e+00,0.000000000000000000e+00,2.275663453695304739e+01,2.612325237383690713e+00,-6.599759885132152615e-01,0.000000000000000000e+00,0.000000000000000000e+00,0.000000000000000000e+00,3.754124076533030774e+01,-1.251432631050054312e+01
1.341249999999999561e-02,0.000000000000000000e+00,0.000000000000000000e+00,2.693080024243748594e-01,0.000000000000000000e+00,0.000000000000000000e+00,2.328636052011075819e+01,2.651179938429022442e+00,-6.779063366111348632e-01,0.000000000000000000e+00,0.000000000000000000e+00,0.000000000000000000e+00,3.782326790150440132e+01,-1.260836129950733131e+01
1.351249999999999500e-02,0.000000000000000000e+00,0.000000000000000000e+00,2.716760877171697786e-01,0.000000000000000000e+00,0.000000000000000000e+00,2.405889939662054289e+01,2.688626355706766446e+00,-6.967018871857227902e-01,0.000000000000000000e+00,0.000000000000000000e+00,0.000000000000000000e+00,3.810522525737322752e+01,-1.270240576484575179e+01
1.361249999999999440e-02,0.000000000000000000e+00,0.000000000000000000e+00,2.740277173765505170e-01,0.000000000000000000e+00,0.000000000000000000e+00,2.299444392068794585e+01,2.692389522501680066e+00,-7.064468543426840608e-01,0.000000000000000000e+00,0.000000000000000000e+00,0.000000000000000000e+00,3.838728003651044673e+01,-1.279644887303389744e+01
1.366249999999999409e-02,0.000000000000000000e+00,0.000000000000000000e+00,2.751378804659970756e-01,0.000000000000000000e+00,0.000000000000000000e+00,2.332554206121917417e+01,2.721565410417319697e+00,-7.456555683537733348e-01,0.000000000000000000e+00,0.000000000000000000e+00,0.000000000000000000e+00,3.852787220691099890e+01,-1.284227136592395091e+01
1.368749999999999481e-02,0.000000000000000000e+00,0.000000000000000000e+00,2.756685337577789996e-01,0.000000000000000000e+00,0.000000000000000000e+00,2.207137994731363406e+01,2.759907804551221755e+00,-7.707900945504581047e-01,0.000000000000000000e+00,0.000000000000000000e+00,0.000000000000000000e+00,3.859888901107763814e+01,-1.286533465698616574e+01
1.371249999999999553e-02,0.000000000000000000e+00,0.000000000000000000e+00,2.762596894036568607e-01,0.000000000000000000e+00,0.000000000000000000e+00,2.306872900330115428e+01,2.793249333474920437e+00,-7.443520097465093910e-01,0.000000000000000000e+00,0.000000000000000000e+00,0.000000000000000000e+00,3.866930579246321997e+01,-1.289098236127600927e+01
1.376249999999999696e-02,0.000000000000000000e+00,0.000000000000000000e+00,2.773588664176445118e-01,0.000000000000000000e+00,0.000000000000000000e+00,2.242114033934244333e+01,2.750115615407999758e+00,-7.200885879423446490e-01,0.000000000000000000e+00,0.000000000000000000e+00,0.000000000000000000e+00,3.881058825383401967e+01,-1.293884722750915373e+01
1.381249999999999839e-02,0.000000000000000000e+00,0.000000000000000000e+00,2.784255932118264165e-01,0.000000000000000000e+00,0.000000000000000000e+00,2.209200283852982594e+01,2.656808823789132301e+00,-7.127872923102386293e-01,0.000000000000000000e+00,0.000000000000000000e+00,0.000000000000000000e+00,3.895176136578601245e+01,-1.298532851785134667e+01
1.386249999999999982e-02,0.000000000000000000e+00,0.000000000000000000e+00,2.794772200138880835e-01,0.000000000000000000e+00,0.000000000000000000e+00,2.212599975590852353e+01,2.602845943329306522e+00,-7.227884306503546963e-01,0.000000000000000000e+00,0.000000000000000000e+00,0.000000000000000000e+00,3.909285648422694948e+01,-1.303140795344866198e+01
1.391250000000000125e-02,0.000000000000000000e+00,0.000000000000000000e+00,2.805292036261627375e-01,0.000000000000000000e+00,0.000000000000000000e+00,2.232305890936303783e+01,2.610803903510447554e+00,-7.338949928251548016e-01,0.000000000000000000e+00,0.000000000000000000e+00,0.000000000000000000e+00,3.923389699735060532e+01,-1.307832653149810476e+01
1.396250000000000095e-02,0.000000000000000000e+00,0.000000000000000000e+00,2.815778097246312561e-01,0.000000000000000000e+00,0.000000000000000000e+00,1.981506437339862714e+01,2.611749796216363162e+00,-7.277589498394803069e-01,0.000000000000000000e+00,0.000000000000000000e+00,0.000000000000000000e+00,3.937358899651180622e+01,-1.312535053054968515e+01
1.401250000000000065e-02,0.000000000000000000e+00,0.000000000000000000e+00,2.826332193133810344e-01,0.000000000000000000e+00,0.000000000000000000e+00,2.223672913073523816e+01,2.627888970529917767e+00,-7.504270710774848530e-01,0.000000000000000000e+00,0.000000000000000000e+00,0.000000000000000000e+00,3.951591573842326710e+01,-1.317254022212739883e+01
1.406250000000000035e-02,0.000000000000000000e+00,0.000000000000000000e+00,2.836845404126130399e-01,0.000000000000000000e+00,0.000000000000000000e+00,1.995830515292519891e+01,2.611543474788883490e+00,-7.349679039148058202e-01,0.000000000000000000e+00,0.000000000000000000e+00,0.000000000000000000e+00,3.965558708366289409e+01,-1.321944405047266358e+01
1.411250000000000004e-02,0.000000000000000000e+00,0.000000000000000000e+00,2.847484191979735013e-01,0.000000000000000000e+00,0.000000000000000000e+00,2.247051343829075165e+01,2.619483246282257038e+00,-7.576047821307601016e-01,0.000000000000000000e+00,0.000000000000000000e+00,0.000000000000000000e+00,3.979790400128075589e+01,-1.326642787950319757e+01
1.416249999999999974e-02,0.000000000000000000e+00,0.000000000000000000e+00,2.858186195417524167e-01,0.000000000000000000e+00,0.000000000000000000e+00,2.045106131542505068e+01,2.606115395031247228e+00,-7.442586028842316237e-01,0.000000000000000000e+00,0.000000000000000000e+00,0.000000000000000000e+00,3.993760975992524465e+01,-1.331333693216410374e+01
1.421249999999999944e-02,0.000000000000000000e+00,0.000000000000000000e+00,2.869057216833317825e-01,0.000000000000000000e+00,0.000000000000000000e+00,2.292891631182657974e+01,2.621449300232463919e+00,-7.665131507315020576e-01,0.000000000000000000e+00,0.000000000000000000e+00,0.000000000000000000e+00,4.007987269109706574e+01,-1.336037657319661953e+01
1.426249999999999914e-02,0.000000000000000000e+00,0.000000000000000000e+00,2.876428141835455921e-01,0.000000000000000000e+00,0.000000000000000000e+00,6.719909454211270727e+00,2.285924324757677706e+00,-5.123903704113504931e-01,0.000000000000000000e+00,0.000000000000000000e+00,0.000000000000000000e+00,4.021964775048665786e+01,-1.340710371325734585e+01
1.431249999999999883e-02,0.000000000000000000e+00,0.000000000000000000e+00,2.877389499757084246e-01,0.000000000000000000e+00,0.000000000000000000e+00,-3.025495552332437388e+00,2.023112460138546176e+00,-3.810542372987491544e-01,0.000000000000000000e+00,0.000000000000000000e+00,0.000000000000000000e+00,4.036182966933381522e+01,-1.345351371138513841e+01
1.436249999999999853e-02,0.000000000000000000e+00,0.000000000000000000e+00,2.878054469194875620e-01,0.000000000000000000e+00,0.000000000000000000e+00,5.706794395888247884e+00,2.340289739283330839e+00,-6.746715830492688859e-01,0.000000000000000000e+00,0.000000000000000000e+00,0.000000000000000000e+00,4.050169441730155029e+01,-1.350041663214813958e+01
1.441249999999999823e-02,0.000000000000000000e+00,0.000000000000000000e+00,2.883770452696706732e-01,0.000000000000000000e+00,0.000000000000000000e+00,1.712869170043048683e+01,2.568794304673875040e+00,-8.388222863945146157e-01,0.000000000000000000e+00,0.000000000000000000e+00,0.000000000000000000e+00,4.064378051669440595e+01,-1.354822317213323046e+01
1.451249999999999762e-02,0.000000000000000000e+00,0.000000000000000000e+00,2.907180951311758577e-01,0.000000000000000000e+00,0.000000000000000000e+00,2.970745965323477122e+01,2.625851669036743274e+00,-8.250658014886007585e-01,0.000000000000000000e+00,0.000000000000000000e+00,0.000000000000000000e+00,4.092476804798030798e+01,-1.364293104844738203e+01
1.461249999999999702e-02,0.000000000000000000e+00,0.000000000000000000e+00,2.933747780714291431e-01,0.000000000000000000e+00,0.000000000000000000e+00,2.350504011217940459e+01,2.432847006507774079e+00,-6.518704765852885163e-01,0.000000000000000000e+00,0.000000000000000000e+00,0.000000000000000000e+00,4.120768779511418956e+01,-1.373566341705499738e+01
1.471249999999999641e-02,0.000000000000000000e+00,0.000000000000000000e+00,2.955745995697204864e-01,0.000000000000000000e+00,0.000000000000000000e+00,2.041913940005052552e+01,2.509086768914682075e+00,-7.396427813958106334e-01,0.000000000000000000e+00,0.000000000000000000e+00,0.000000000000000000e+00,4.148885234993192483e+01,-1.382928705968448391e+01
1.473749999999999713e-02,0.000000000000000000e+00,0.000000000000000000e+00,2.961915165370101466e-01,0.000000000000000000e+00,0.000000000000000000e+00,2.937160246625520799e+01,2.747412637774350852e+00,-9.335667038258993466e-01,0.000000000000000000e+00,0.000000000000000000e+00,0.000000000000000000e+00,4.156009302723423815e+01,-1.385301885046032844e+01
1.476249999999999785e-02,0.000000000000000000e+00,0.000000000000000000e+00,2.969428946270758485e-01,0.000000000000000000e+00,0.000000000000000000e+00,3.332339108219977675e+01,3.080155321902920740e+00,-1.231467910179651071e+00,0.000000000000000000e+00,0.000000000000000000e+00,0.000000000000000000e+00,4.163074158689812521e+01,-1.387724840563029716e+01
1.481249999999999928e-02,0.000000000000000000e+00,0.000000000000000000e+00,2.984505875664226204e-01,0.000000000000000000e+00,0.000000000000000000e+00,2.973413393697774509e+01,3.657055165884980141e+00,-1.813890577730287834e+00,0.000000000000000000e+00,0.000000000000000000e+00,0.000000000000000000e+00,4.177185299302811217e+01,-1.392606089755108556e+01
1.486250000000000071e-02,0.000000000000000000e+00,0.000000000000000000e+00,2.996618362437732386e-01,0.000000000000000000e+00,0.000000000000000000e+00,2.336161893772773013e+01,3.522703945516689750e+00,-1.705743902500998166e+00,0.000000000000000000e+00,0.000000000000000000e+00,0.000000000000000000e+00,4.191282963540184880e+01,-1.397400706039663021e+01
1.491250000000000214e-02,0.000000000000000000e+00,0.000000000000000000e+00,3.006018105646029448e-01,0.000000000000000000e+00,0.000000000000000000e+00,1.842428502786829014e+01,3.201221769702386144e+00,-1.476806687039722510e+00,0.000000000000000000e+00,0.000000000000000000e+00,0.000000000000000000e+00,4.205376943648121824e+01,-1.402036600056406002e+01
1.496250000000000357e-02,0.000000000000000000e+00,0.000000000000000000e+00,3.012281790913609592e-01,0.000000000000000000e+00,0.000000000000000000e+00,5.566510755040614988e+00,2.664647269369139426e+00,-1.093466041342579409e+00,0.000000000000000000e+00,0.000000000000000000e+00,0.000000000000000000e+00,4.219471118831424405e+01,-1.406600303742158431e+01
1.501250000000000501e-02,0.000000000000000000e+00,0.000000000000000000e+00,3.008028502124320824e-01,0.000000000000000000e+00,0.000000000000000000e+00,-1.247719583509978314e+01,1.989736856465850634e+00,-6.839106011981760380e-01,0.000000000000000000e+00,0.000000000000000000e+00,0.000000000000000000e+00,4.233565632279261592e+01,-1.411131916654744778e+01
1.506250000000000644e-02,0.000000000000000000e+00,0.000000000000000000e+00,2.995763034628146082e-01,0.000000000000000000e+00,0.000000000000000000e+00,-3.764625136372651326e+01,3.375696555578838964e+00,-9.500751913203270282e-01,0.000000000000000000e+00,0.000000000000000000e+00,0.000000000000000000e+00,4.247660565726507542e+01,-1.416067226744450558e+01
1.511250000000000787e-02,0.000000000000000000e+00,0.000000000000000000e+00,2.980585565312549590e-01,0.000000000000000000e+00,0.000000000000000000e+00,-1.766178272215903178e+01,1.611834595598322650e+00,-1.252650982745988073e-01,0.000000000000000000e+00,0.000000000000000000e+00,0.000000000000000000e+00,4.261755957639377357e+01,-1.421000857158792563e+01
1.516250000000000757e-02,0.000000000000000000e+00,0.000000000000000000e+00,2.976749056215213796e-01,0.000000000000000000e+00,0.000000000000000000e+00,2.340689310079882457e+00,1.082641248073475060e+00,-1.155139268235727268e-01,0.000000000000000000e+00,0.000000000000000000e+00,0.000000000000000000e+00,4.275798144639767884e+01,-1.425430780988676460e+01
1.521250000000000727e-02,0.000000000000000000e+00,0.000000000000000000e+00,2.984034418859814464e-01,0.000000000000000000e+00,0.000000000000000000e+00,2.676148063751073991e+01,1.107027057579741625e+00,-2.297266902665549004e-01,0.000000000000000000e+00,0.000000000000000000e+00,0.000000000000000000e+00,4.289948263960801000e+01,-1.429773323027538190e+01
1.526250000000000696e-02,0.000000000000000000e+00,0.000000000000000000e+00,2.992862708017965390e-01,0.000000000000000000e+00,0.000000000000000000e+00,8.783110527728402062e+00,4.987048758465071785e+00,-2.417760180785674784e+00,0.000000000000000000e+00,0.000000000000000000e+00,0.000000000000000000e+00,4.304004877712388577e+01,-1.434464014900029838e+01
1.531250000000000666e-02,0.000000000000000000e+00,0.000000000000000000e+00,2.994828213233297065e-01,0.000000000000000000e+00,0.000000000000000000e+00,-1.128004994380944703e+00,9.690980943639069256e-01,4.889292004044997197e-01,0.000000000000000000e+00,0.000000000000000000e+00,0.000000000000000000e+00,4.318142376309070585e+01,-1.439473031648555157e+01
1.536250000000000636e-02,0.000000000000000000e+00,0.000000000000000000e+00,3.002382358866088063e-01,0.000000000000000000e+00,0.000000000000000000e+00,3.129252762940585342e+01,1.573536544144319205e+00,-3.465571593444802811e-01,0.000000000000000000e+00,0.000000000000000000e+00,0.000000000000000000e+00,4.332210021696268143e+01,-1.444245464482716912e+01
1.541250000000000606e-02,0.000000000000000000e+00,0.000000000000000000e+00,3.023367985151521609e-01,0.000000000000000000e+00,0.000000000000000000e+00,5.274034030734725320e+01,1.544983400234151594e+00,-4.150642579437726631e-01,0.000000000000000000e+00,0.000000000000000000e+00,0.000000000000000000e+00,4.346337886136275586e+01,-1.448775588275272774e+01
1.546250000000000575e-02,0.000000000000000000e+00,0.000000000000000000e+00,3.046552632435340358e-01,0.000000000000000000e+00,0.000000000000000000e+00,4.009565244371324155e+01,5.706621019254952465e+00,-2.863650586329191672e+00,0.000000000000000000e+00,0.000000000000000000e+00,0.000000000000000000e+00,4.360413937380804583e+01,-1.453493962705546849e+01
1.551250000000000545e-02,0.000000000000000000e+00,0.000000000000000000e+00,3.057105006078889575e-01,0.000000000000000000e+00,0.000000000000000000e+00,2.163993429773785060e+00,1.162135555346501814e+00,4.831272372129680748e-01,0.000000000000000000e+00,0.000000000000000000e+00,0.000000000000000000e+00,4.374534474944023543e+01,-1.458345381240390459e+01
1.556250000000000515e-02,0.000000000000000000e+00,0.000000000000000000e+00,3.054951581262160820e-01,0.000000000000000000e+00,0.000000000000000000e+00,-1.093299255563489858e+01,8.717030250088587673e-01,2.659808495135755901e-01,0.000000000000000000e+00,0.000000000000000000e+00,0.000000000000000000e+00,4.388616905821819358e+01,-1.462876299252980772e+01
1.561250000000000485e-02,0.000000000000000000e+00,0.000000000000000000e+00,3.056537508603053843e-01,0.000000000000000000e+00,0.000000000000000000e+00,1.719241095778031436e+01,1.267916376189929029e+00,-2.304180046245912494e-01,0.000000000000000000e+00,0.000000000000000000e+00,0.000000000000000000e+00,4.402731894815830316e+01,-1.467317613541001364e+01
1.571250000000000424e-02,0.000000000000000000e+00,0.000000000000000000e+00,3.071384997400596339e-01,0.000000000000000000e+00,0.000000000000000000e+00,1.271984032288089672e+01,4.446573411658167885e+00,-2.098796310774436513e+00,0.000000000000000000e+00,0.000000000000000000e+00,0.000000000000000000e+00,4.430920151573413079e+01,-1.477054506829080616e+01
1.576250000000000567e-02,0.000000000000000000e+00,0.000000000000000000e+00,3.074687787037475584e-01,0.000000000000000000e+00,0.000000000000000000e+00,1.725633709985656461e+00,1.301914938933454113e+00,1.174689352963305955e-01,0.000000000000000000e+00,0.000000000000000000e+00,0.000000000000000000e+00,4.444993503692865033e+01,-1.481830378739890541e+01
1.581250000000000711e-02,0.000000000000000000e+00,0.000000000000000000e+00,3.079249530807341984e-01,0.000000000000000000e+00,0.000000000000000000e+00,1.550512295021116316e+01,1.528637709936784717e+00,-3.081461417151736271e-01,0.000000000000000000e+00,0.000000000000000000e+00,0.000000000000000000e+00,4.459185620578751497e+01,-1.486570946322369835e+01
1.586250000000000854e-02,0.000000000000000000e+00,0.000000000000000000e+00,3.093920836239452687e-01,0.000000000000000000e+00,0.000000000000000000e+00,4.384947836461842741e+01,1.862447821439911166e+00,-6.722566328690442461e-01,0.000000000000000000e+00,0.000000000000000000e+00,0.000000000000000000e+00,4.473141394967346685e+01,-1.490889400019973010e+01
1.591250000000000997e-02,0.000000000000000000e+00,0.000000000000000000e+00,3.110032461882141774e-01,0.000000000000000000e+00,0.000000000000000000e+00,2.035821997967224917e+01,9.507848156635972714e+00,-5.185945333804839130e+00,0.000000000000000000e+00,0.000000000000000000e+00,0.000000000000000000e+00,4.487426386390480104e+01,-1.495888741653921983e+01
1.596250000000001140e-02,0.000000000000000000e+00,0.000000000000000000e+00,3.111782643005576166e-01,0.000000000000000000e+00,0.000000000000000000e+00,-1.313595882163361317e+01,1.080517747094226877e+00,8.777188889425604490e-01,0.000000000000000000e+00,0.000000000000000000e+00,0.000000000000000000e+00,4.501310224574189789e+01,-1.501019624673659614e+01
1.601250000000001283e-02,0.000000000000000000e+00,0.000000000000000000e+00,3.110094848753562347e-01,0.000000000000000000e+00,0.000000000000000000e+00,5.971979468768535249e+00,7.391328109912824740e-01,2.228967567253155868e-01,0.000000000000000000e+00,0.000000000000000000e+00,0.000000000000000000e+00,4.515649472790611441e+01,-1.505530716685901460e+01
1.606250000000001427e-02,0.000000000000000000e+00,0.000000000000000000e+00,3.119581523138622581e-01,0.000000000000000000e+00,0.000000000000000000e+00,3.224067595765993843e+01,2.898268801233422343e-01,2.755705018775493897e-01,0.000000000000000000e+00,0.000000000000000000e+00,0.000000000000000000e+00,4.529493917072262832e+01,-1.509516417770961283e+01
1.611250000000001570e-02,0.000000000000000000e+00,0.000000000000000000e+00,3.135630592037556008e-01,0.000000000000000000e+00,0.000000000000000000e+00,3.188954332430355265e+01,4.889052453798171882e+00,-2.698243255332001489e+00,0.000000000000000000e+00,0.000000000000000000e+00,0.000000000000000000e+00,4.543860126309839842e+01,-1.514150220229161903e+01
1.616250000000001713e-02,0.000000000000000000e+00,0.000000000000000000e+00,3.143528073703783510e-01,0.000000000000000000e+00,0.000000000000000000e+00,-1.001948163313509249e-01,4.615771250213422050e+00,-1.847942509139747225e+00,0.000000000000000000e+00,0.000000000000000000e+00,0.000000000000000000e+00,4.557687949814378214e+01,-1.519370543223755554e+01
1.621250000000001856e-02,0.000000000000000000e+00,0.000000000000000000e+00,3.142650122604137564e-01,0.000000000000000000e+00,0.000000000000000000e+00,-3.692516456158991378e+00,7.230214442588023260e-01,5.244304064155995704e-01,0.000000000000000000e+00,0.000000000000000000e+00,0.000000000000000000e+00,4.572062238023996628e+01,-1.524472175105319138e+01
1.631250000000001796e-02,0.000000000000000000e+00,0.000000000000000000e+00,3.167381821859585056e-01,0.000000000000000000e+00,0.000000000000000000e+00,5.307142492786677934e+01,1.456911283924542166e+00,-6.749948292444974962e-01,0.000000000000000000e+00,0.000000000000000000e+00,0.000000000000000000e+00,4.599989516248675159e+01,-1.533258513549308510e+01
1.641250000000001735e-02,0.000000000000000000e+00,0.000000000000000000e+00,3.206319803341383667e-01,0.000000000000000000e+00,0.000000000000000000e+00,2.527060143683785043e+01,4.788889945203348653e+00,-2.357923555201406174e+00,0.000000000000000000e+00,0.000000000000000000e+00,0.000000000000000000e+00,4.628457707952934186e+01,-1.542566077764405463e+01
1.651250000000001675e-02,0.000000000000000000e+00,0.000000000000000000e+00,3.230496356001741343e-01,0.000000000000000000e+00,0.000000000000000000e+00,2.262319739384734518e+01,1.371954919797999661e+00,-8.011364563423620244e-03,0.000000000000000000e+00,0.000000000000000000e+00,0.000000000000000000e+00,4.656395867523178822e+01,-1.552491205564836996e+01
1.661250000000001614e-02,0.000000000000000000e+00,0.000000000000000000e+00,3.249986286883725373e-01,0.000000000000000000e+00,0.000000000000000000e+00,1.670634872948134131e+01,4.630152426864825088e+00,-2.372531337107575133e+00,0.000000000000000000e+00,0.000000000000000000e+00,0.000000000000000000e+00,4.684849945016071615e+01,-1.561780078687303508e+01
1.671250000000001554e-02,0.000000000000000000e+00,0.000000000000000000e+00,3.263815561238130325e-01,0.000000000000000000e+00,0.000000000000000000e+00,1.069832034820015032e+01,5.291730565312271484e-01,3.774844500476350340e-01,0.000000000000000000e+00,0.000000000000000000e+00,0.000000000000000000e+00,4.712804696277015637e+01,-1.570918868376283051e+01
1.681250000000001493e-02,0.000000000000000000e+00,0.000000000000000000e+00,3.277861027149571727e-01,0.000000000000000000e+00,0.000000000000000000e+00,1.751588473384283517e+01,4.483127558128499501e+00,-2.424610280250587113e+00,0.000000000000000000e+00,0.000000000000000000e+00,0.000000000000000000e+00,4.741240341238323452e+01,-1.580377494605406774e+01
1.691250000000001433e-02,0.000000000000000000e+00,0.000000000000000000e+00,3.294877602596165134e-01,0.000000000000000000e+00,0.000000000000000000e+00,1.646525971919341913e+01,4.412891215500236997e-01,4.532162647592090643e-01,0.000000000000000000e+00,0.000000000000000000e+00,0.000000000000000000e+00,4.769214831786555209e+01,-1.589915108079795658e+01
1.701250000000001372e-02,0.000000000000000000e+00,0.000000000000000000e+00,3.316024687570500729e-01,0.000000000000000000e+00,0.000000000000000000e+00,2.581696119794701261e+01,4.524728101669518665e+00,-2.504778736104736225e+00,0.000000000000000000e+00,0.000000000000000000e+00,0.000000000000000000e+00,4.797629876380963054e+01,-1.599225865820768355e+01
1.711250000000001312e-02,0.000000000000000000e+00,0.000000000000000000e+00,3.341464703426974547e-01,0.000000000000000000e+00,0.000000000000000000e+00,2.511984120525885089e+01,4.912649774921231116e-01,3.938952775234666470e-01,0.000000000000000000e+00,0.000000000000000000e+00,0.000000000000000000e+00,4.825625458767096632e+01,-1.608575339863294218e+01
1.721250000000001251e-02,0.000000000000000000e+00,0.000000000000000000e+00,3.380011997089769626e-01,0.000000000000000000e+00,0.000000000000000000e+00,5.180245483544074148e+01,2.372952249001808234e+00,-1.341090371883653765e+00,0.000000000000000000e+00,0.000000000000000000e+00,0.000000000000000000e+00,4.854019224350729900e+01,-1.617845391419203338e+01
1.731250000000001191e-02,0.000000000000000000e+00,0.000000000000000000e+00,3.417007666019967194e-01,0.000000000000000000e+00,0.000000000000000000e+00,2.258166617135278287e+01,4.608840590389365666e+00,-2.268317689605392484e+00,0.000000000000000000e+00,0.000000000000000000e+00,0.000000000000000000e+00,4.882036024567293708e+01,-1.627484050810865313e+01
1.736250000000001334e-02,0.000000000000000000e+00,0.000000000000000000e+00,3.429819322238075729e-01,0.000000000000000000e+00,0.000000000000000000e+00,3.080131842838148515e+01,2.748051665903207041e+00,-1.109863220181602328e+00,0.000000000000000000e+00,0.000000000000000000e+00,0.000000000000000000e+00,4.896279480911867665e+01,-1.632336663428472079e+01
1.738750000000001406e-02,0.000000000000000000e+00,0.000000000000000000e+00,3.437902821271481280e-01,0.000000000000000000e+00,0.000000000000000000e+00,3.748164691341489174e+01,2.513728085851073768e+00,-1.062032482830912450e+00,0.000000000000000000e+00,0.000000000000000000e+00,0.000000000000000000e+00,4.903197732223947725e+01,-1.634627819507361579e+01
1.741250000000001477e-02,0.000000000000000000e+00,0.000000000000000000e+00,3.446884772410919728e-01,0.000000000000000000e+00,0.000000000000000000e+00,3.180401984906936974e+01,2.099033064036427643e+00,-7.974211179994853405e-01,0.000000000000000000e+00,0.000000000000000000e+00,0.000000000000000000e+00,4.910419952458195070e+01,-1.637081655492562149e+01
1.746250000000001620e-02,0.000000000000000000e+00,0.000000000000000000e+00,3.457083772704073188e-01,0.000000000000000000e+00,0.000000000000000000e+00,1.964215604271421611e+01,1.570314131307266603e+00,-5.484174679159152799e-01,0.000000000000000000e+00,0.000000000000000000e+00,0.000000000000000000e+00,4.924543078055928902e+01,-1.641459802370278354e+01
1.751250000000001764e-02,0.000000000000000000e+00,0.000000000000000000e+00,3.460914086255661992e-01,0.000000000000000000e+00,0.000000000000000000e+00,-3.750258765851489429e+00,3.346809115426285786e+00,-1.290014096012087608e+00,0.000000000000000000e+00,0.000000000000000000e+00,0.000000000000000000e+00,4.938653988143539664e+01,-1.646259938483549590e+01
1.756250000000001907e-02,0.000000000000000000e+00,0.000000000000000000e+00,3.461370515913256840e-01,0.000000000000000000e+00,0.000000000000000000e+00,1.399577001354303896e+01,1.899574629532679859e+00,-6.572755287130134239e-01,0.000000000000000000e+00,0.000000000000000000e+00,0.000000000000000000e+00,4.952756489779451954e+01,-1.651228359230226062e+01
1.761250000000002050e-02,0.000000000000000000e+00,0.000000000000000000e+00,3.470526357758698111e-01,0.000000000000000000e+00,0.000000000000000000e+00,2.982951816680255419e+01,1.528654654635914323e+00,-6.340262755072362255e-01,0.000000000000000000e+00,0.000000000000000000e+00,0.000000000000000000e+00,4.966853384322716636e+01,-1.655740738050409533e+01
1.766250000000002193e-02,0.000000000000000000e+00,0.000000000000000000e+00,3.482701352389938609e-01,0.000000000000000000e+00,0.000000000000000000e+00,1.927358877370472356e+01,1.280639288238265117e+00,-4.890929212978259999e-01,0.000000000000000000e+00,0.000000000000000000e+00,0.000000000000000000e+00,4.980701960779929038e+01,-1.660102749595450078e+01
1.771250000000002336e-02,0.000000000000000000e+00,0.000000000000000000e+00,3.487987038515343308e-01,0.000000000000000000e+00,0.000000000000000000e+00,1.609979463582015047e+00,5.211220303317633196e+00,-2.952989901842009157e+00,0.000000000000000000e+00,0.000000000000000000e+00,0.000000000000000000e+00,4.995042479295213411e+01,-1.664773422816062975e+01
1.776250000000002480e-02,0.000000000000000000e+00,0.000000000000000000e+00,3.487967103415008374e-01,0.000000000000000000e+00,0.000000000000000000e+00,-1.570525187792445321e+00,1.549769365505036411e+00,-2.003479954850009015e-01,0.000000000000000000e+00,0.000000000000000000e+00,0.000000000000000000e+00,5.008913199037483110e+01,-1.669824430924385794e+01
1.781250000000002623e-02,0.000000000000000000e+00,0.000000000000000000e+00,3.495642416286205978e-01,0.000000000000000000e+00,0.000000000000000000e+00,3.200920335146154372e+01,1.823842766351830846e+00,-8.649607034111849169e-01,0.000000000000000000e+00,0.000000000000000000e+00,0.000000000000000000e+00,5.023231083504052208e+01,-1.674677397247310040e+01
1.786250000000002766e-02,0.000000000000000000e+00,0.000000000000000000e+00,3.509957896112843034e-01,0.000000000000000000e+00,0.000000000000000000e+00,2.563484624435358228e+01,1.004109496066022844e+00,-3.005354806517961941e-01,0.000000000000000000e+00,0.000000000000000000e+00,0.000000000000000000e+00,5.037124608472775833e+01,-1.679095110422324311e+01
1.791250000000002909e-02,0.000000000000000000e+00,0.000000000000000000e+00,3.524030656172265630e-01,0.000000000000000000e+00,0.000000000000000000e+00,3.032533918940903561e+01,1.364867548710060330e+00,-6.321341449779511734e-01,0.000000000000000000e+00,0.000000000000000000e+00,0.000000000000000000e+00,5.051419777111534870e+01,-1.683482005368244216e+01
1.796250000000003053e-02,0.000000000000000000e+00,0.000000000000000000e+00,3.537558698207591279e-01,0.000000000000000000e+00,0.000000000000000000e+00,2.407977625370131847e+01,5.896359930699536456e+00,-3.513098043548866123e+00,0.000000000000000000e+00,0.000000000000000000e+00,0.000000000000000000e+00,5.065335718337041016e+01,-1.688297761897725735e+01
1.801250000000003196e-02,0.000000000000000000e+00,0.000000000000000000e+00,3.550125403761676401e-01,0.000000000000000000e+00,0.000000000000000000e+00,2.593523252207217311e+01,2.158586326161432645e+00,-6.592101288393089620e-01,0.000000000000000000e+00,0.000000000000000000e+00,0.000000000000000000e+00,5.079608937533442514e+01,-1.693524590739002633e+01
1.806250000000003339e-02,0.000000000000000000e+00,0.000000000000000000e+00,3.567356711414962356e-01,0.000000000000000000e+00,0.000000000000000000e+00,4.309988539424146836e+01,2.069552106143361492e+00,-9.688147727905103146e-01,0.000000000000000000e+00,0.000000000000000000e+00,0.000000000000000000e+00,5.093546230587337931e+01,-1.698320777535053594e+01
1.811250000000003482e-02,0.000000000000000000e+00,0.000000000000000000e+00,3.588605974899000128e-01,0.000000000000000000e+00,0.000000000000000000e+00,4.190509473068143365e+01,1.392363772594595872e+00,-5.567657105503185377e-01,0.000000000000000000e+00,0.000000000000000000e+00,0.000000000000000000e+00,5.107798795541388870e+01,-1.702603035163036438e+01
1.821250000000003422e-02,0.000000000000000000e+00,0.000000000000000000e+00,3.614387351023961026e-01,0.000000000000000000e+00,0.000000000000000000e+00,9.799790213784330462e+00,4.353738330553876601e+00,-2.436616114015878853e+00,0.000000000000000000e+00,0.000000000000000000e+00,0.000000000000000000e+00,5.135860369063819064e+01,-1.711757085391072408e+01
1.831250000000003361e-02,0.000000000000000000e+00,0.000000000000000000e+00,3.638791187781350023e-01,0.000000000000000000e+00,0.000000000000000000e+00,3.861303774301771341e+01,1.299086576919290525e+00,-3.769143079980183941e-01,0.000000000000000000e+00,0.000000000000000000e+00,0.000000000000000000e+00,5.164181561296426537e+01,-1.721669168369044911e+01
1.841250000000003301e-02,0.000000000000000000e+00,0.000000000000000000e+00,3.670620200209914752e-01,0.000000000000000000e+00,0.000000000000000000e+00,2.553259579492182141e+01,2.395238925845756928e+00,-1.700023149783518095e+00,0.000000000000000000e+00,0.000000000000000000e+00,0.000000000000000000e+00,5.192275540724708094e+01,-1.730868036020455492e+01
1.851250000000003240e-02,0.000000000000000000e+00,0.000000000000000000e+00,3.678223408995244248e-01,0.000000000000000000e+00,0.000000000000000000e+00,-1.057064578336897931e+01,5.007768687468014512e+00,-3.327587955195865366e+00,0.000000000000000000e+00,0.000000000000000000e+00,0.000000000000000000e+00,5.220568212045439083e+01,-1.740232232940487478e+01
