time[s],flange_omega_x[rad/s],flange_omega_y[rad/s],flange_omega_z[rad/s],flange_alpha_x[rad/s2],flange_alpha_y[rad/s2],flange_alpha_z[rad/s2],cycloid_acc_x[m/s2],cycloid_acc_y[m/s2],cycloid_acc_z[m/s2],input_omega_x[rad/s],input_omega_y[rad/s],input_omega_z[rad/s],crank_omega_z[rad/s]
0.000000000000000000e+00,0.000000000000000000e+00,0.000000000000000000e+00,0.000000000000000000e+00,0.000000000000000000e+00,0.000000000000000000e+00,2.195836599232643130e+04,-9.007359125380500586e+01,1.802990128583227829e+02,0.000000000000000000e+00,0.000000000000000000e+00,0.000000000000000000e+00,0.000000000000000000e+00,0.000000000000000000e+00
5.000000000000000917e-05,0.000000000000000000e+00,0.000000000000000000e+00,8.310402878010169497e-03,0.000000000000000000e+00,0.000000000000000000e+00,-6.053321352014405932e+01,3.660607424302480695e+01,2.588863931687385289e+01,0.000000000000000000e+00,0.000000000000000000e+00,0.000000000000000000e+00,1.409980509203477284e-01,-1.122095143587566596e-01
1.031250000000000265e-04,0.000000000000000000e+00,0.000000000000000000e+00,7.823713333209756163e-03,0.000000000000000000e+00,0.000000000000000000e+00,4.195450526583881867e+01,6.818138118383179069e-01,1.976569470227650527e+01,0.000000000000000000e+00,0.000000000000000000e+00,0.000000000000000000e+00,2.908117092059258613e-01,-1.259812759818104699e-01
1.593750000000000386e-04,0.000000000000000000e+00,0.000000000000000000e+00,1.159891560651724225e-02,0.000000000000000000e+00,0.000000000000000000e+00,8.118723894440722688e+01,-1.015110088581089265e+01,8.278289961603780611e+00,0.000000000000000000e+00,0.000000000000000000e+00,0.000000000000000000e+00,4.494384541965588120e-01,-1.285737726520796154e-01
2.093750000000000613e-04,0.000000000000000000e+00,0.000000000000000000e+00,1.550377577289137679e-02,0.000000000000000000e+00,0.000000000000000000e+00,7.684542338668134676e+01,-9.162706579107567251e+00,-2.520913095725201836e-01,0.000000000000000000e+00,0.000000000000000000e+00,0.000000000000000000e+00,5.904383402172478368e-01,-1.848292534872462978e-01
2.593750000000000569e-04,0.000000000000000000e+00,0.000000000000000000e+00,1.954394009140218713e-02,0.000000000000000000e+00,0.000000000000000000e+00,8.293474951204187562e+01,-4.372215256245191028e+00,-7.514710744373492624e+00,0.000000000000000000e+00,0.000000000000000000e+00,0.000000000000000000e+00,7.314381917827408319e-01,-2.360029198569121855e-01
3.093749999999999712e-04,0.000000000000000000e+00,0.000000000000000000e+00,2.352331579200861444e-02,0.000000000000000000e+00,0.000000000000000000e+00,7.953788525422751832e+01,2.024953848951433155e+00,-1.115774912167293920e+01,0.000000000000000000e+00,0.000000000000000000e+00,0.000000000000000000e+00,8.726730045181323447e-01,-2.877746830095718189e-01
3.593749999999998855e-04,0.000000000000000000e+00,0.000000000000000000e+00,2.754615133909832370e-02,0.000000000000000000e+00,0.000000000000000000e+00,8.042285074439737969e+01,6.938989700042003328e+00,-1.358502867903936284e+01,0.000000000000000000e+00,0.000000000000000000e+00,0.000000000000000000e+00,1.013746231238903839e+00,-3.372259382294592323e-01
4.218749999999998326e-04,0.000000000000000000e+00,0.000000000000000000e+00,3.212602876130067620e-02,0.000000000000000000e+00,0.000000000000000000e+00,6.801191602610455789e+01,9.512524753150167101e+00,-1.212196674523078599e+01,0.000000000000000000e+00,0.000000000000000000e+00,0.000000000000000000e+00,1.189987144165670863e+00,-4.022583329211944503e-01
4.718749999999998553e-04,0.000000000000000000e+00,0.000000000000000000e+00,3.517072801600939352e-02,0.000000000000000000e+00,0.000000000000000000e+00,6.002041553334675683e+01,7.479229781741573824e+00,-8.882803472389058541e+00,0.000000000000000000e+00,0.000000000000000000e+00,0.000000000000000000e+00,1.330964554810449174e+00,-4.492834492775386601e-01
5.093749999999998453e-04,0.000000000000000000e+00,0.000000000000000000e+00,3.720919900668050867e-02,0.000000000000000000e+00,0.000000000000000000e+00,5.287935573194866379e+01,5.808458969655905690e+00,-6.509308616288796756e+00,0.000000000000000000e+00,0.000000000000000000e+00,0.000000000000000000e+00,1.436617300514325679e+00,-4.811698678677925889e-01
5.531249999999999058e-04,0.000000000000000000e+00,0.000000000000000000e+00,3.924510560915162038e-02,0.000000000000000000e+00,0.000000000000000000e+00,3.785739651446655785e+01,5.110066786309571896e+00,-3.547578704923941117e+00,0.000000000000000000e+00,0.000000000000000000e+00,0.000000000000000000e+00,1.559777500087469848e+00,-5.210567216408512614e-01
6.031249999999996033e-04,0.000000000000000000e+00,0.000000000000000000e+00,4.107747592776708756e-02,0.000000000000000000e+00,0.000000000000000000e+00,4.551237249668466234e+01,6.284421910593435356e+00,-1.032662371084487329e+00,0.000000000000000000e+00,0.000000000000000000e+00,0.000000000000000000e+00,1.700667341055210002e+00,-5.670943271453005030e-01
6.531249999999996260e-04,0.000000000000000000e+00,0.000000000000000000e+00,4.485031684307631134e-02,0.000000000000000000e+00,0.000000000000000000e+00,8.979763282150587145e+01,-6.752581498485608513e+00,-4.982351623861362988e+00,0.000000000000000000e+00,0.000000000000000000e+00,0.000000000000000000e+00,1.841941808792679325e+00,-6.164155968358749904e-01
7.031249999999997571e-04,0.000000000000000000e+00,0.000000000000000000e+00,4.884563139985551722e-02,0.000000000000000000e+00,0.000000000000000000e+00,7.001687430951162128e+01,-8.559537753574987917e+00,-3.693251052573167215e+00,0.000000000000000000e+00,0.000000000000000000e+00,0.000000000000000000e+00,1.982918675248093177e+00,-6.615268685740354204e-01
7.656249999999998126e-04,0.000000000000000000e+00,0.000000000000000000e+00,5.197816114760078071e-02,0.000000000000000000e+00,0.000000000000000000e+00,7.523461793403807718e+00,-6.694071419280621882e+00,4.522382064302000182e-01,0.000000000000000000e+00,0.000000000000000000e+00,0.000000000000000000e+00,2.159141198189344912e+00,-7.203849331772852471e-01
8.031249999999999110e-04,0.000000000000000000e+00,0.000000000000000000e+00,5.238240139057161876e-02,0.000000000000000000e+00,0.000000000000000000e+00,1.618792063722304420e+01,-3.800256175744922249e+00,1.257144305571960219e+00,0.000000000000000000e+00,0.000000000000000000e+00,0.000000000000000000e+00,2.264551200940521980e+00,-7.551723668703506087e-01
8.531249999999999337e-04,0.000000000000000000e+00,0.000000000000000000e+00,5.293587081004551276e-02,0.000000000000000000e+00,0.000000000000000000e+00,2.281692806508302418e+00,6.252992358539092299e-01,1.347125374135249576e+00,0.000000000000000000e+00,0.000000000000000000e+00,0.000000000000000000e+00,2.406156348512006549e+00,-8.032080873393129261e-01
8.999999999999996501e-04,0.000000000000000000e+00,0.000000000000000000e+00,5.301730669529225448e-02,0.000000000000000000e+00,0.000000000000000000e+00,4.871854917053192402e+00,3.888947145744908518e+00,1.527234126639408940e+00,0.000000000000000000e+00,0.000000000000000000e+00,0.000000000000000000e+00,2.538196823597845597e+00,-8.490012992736679642e-01
9.499999999999993476e-04,0.000000000000000000e+00,0.000000000000000000e+00,5.354045719951039395e-02,0.000000000000000000e+00,0.000000000000000000e+00,1.466196825514640345e+01,5.519099484228229713e+00,1.453569783503693591e+00,0.000000000000000000e+00,0.000000000000000000e+00,0.000000000000000000e+00,2.679046353585897489e+00,-8.962769296578434464e-01
1.003124999999999026e-03,0.000000000000000000e+00,0.000000000000000000e+00,5.518283988678548968e-02,0.000000000000000000e+00,0.000000000000000000e+00,4.551337194143044229e+01,4.130381472064217796e+00,1.845412765662977517e+00,0.000000000000000000e+00,0.000000000000000000e+00,0.000000000000000000e+00,2.828805840859150766e+00,-9.533817683523786446e-01
1.053124999999998724e-03,0.000000000000000000e+00,0.000000000000000000e+00,5.724126229749914446e-02,0.000000000000000000e+00,0.000000000000000000e+00,3.557220899729566810e+01,3.145782254300423020e+00,1.008008854906494944e+00,0.000000000000000000e+00,0.000000000000000000e+00,0.000000000000000000e+00,2.969808913015953955e+00,-9.924180954243909669e-01
1.103124999999998421e-03,0.000000000000000000e+00,0.000000000000000000e+00,5.882401469417682105e-02,0.000000000000000000e+00,0.000000000000000000e+00,2.775567280362999512e+01,2.878191532173386413e+00,4.229116743027113712e-01,0.000000000000000000e+00,0.000000000000000000e+00,0.000000000000000000e+00,3.110805058915063093e+00,-1.033720380300473307e+00
1.165624999999998260e-03,0.000000000000000000e+00,0.000000000000000000e+00,6.035223288804424796e-02,0.000000000000000000e+00,0.000000000000000000e+00,2.159008210969050623e+01,3.062637051661377452e+00,-3.649536295834480693e-01,0.000000000000000000e+00,0.000000000000000000e+00,0.000000000000000000e+00,3.287054224975308081e+00,-1.094845881756840278e+00
1.215624999999998391e-03,0.000000000000000000e+00,0.000000000000000000e+00,6.131368464707498411e-02,0.000000000000000000e+00,0.000000000000000000e+00,1.587511366334522123e+01,1.813977826313981190e+00,-1.774289316328995003e+00,0.000000000000000000e+00,0.000000000000000000e+00,0.000000000000000000e+00,3.428054356375350942e+00,-1.145356352288145363e+00
1.265624999999998522e-03,0.000000000000000000e+00,0.000000000000000000e+00,6.184703628871887626e-02,0.000000000000000000e+00,0.000000000000000000e+00,5.537370247728390815e+00,3.453354002301847192e-01,-2.499859486053824575e+00,0.000000000000000000e+00,0.000000000000000000e+00,0.000000000000000000e+00,3.569054736571796393e+00,-1.193138344217672175e+00
1.303124999999998295e-03,0.000000000000000000e+00,0.000000000000000000e+00,6.196007318717650786e-02,0.000000000000000000e+00,0.000000000000000000e+00,1.182791152054247119e+00,5.615964539857866145e-01,-2.428283606395961858e+00,0.000000000000000000e+00,0.000000000000000000e+00,0.000000000000000000e+00,3.674636659345600798e+00,-1.231663292096397466e+00
1.353124999999997993e-03,0.000000000000000000e+00,0.000000000000000000e+00,6.187958956778404768e-02,0.000000000000000000e+00,0.000000000000000000e+00,-4.459298780743555568e+00,-1.838063418647830904e-01,-2.748831337117364271e+00,0.000000000000000000e+00,0.000000000000000000e+00,0.000000000000000000e+00,3.815538354577426627e+00,-1.279630612301989379e+00
1.415624999999997831e-03,0.000000000000000000e+00,0.000000000000000000e+00,6.141628072659289367e-02,0.000000000000000000e+00,0.000000000000000000e+00,-1.136452194372800584e+01,3.426327515701544923e-01,-1.952534618769200536e+00,0.000000000000000000e+00,0.000000000000000000e+00,0.000000000000000000e+00,3.991779649702914767e+00,-1.334018647061074425e+00
1.465624999999997962e-03,0.000000000000000000e+00,0.000000000000000000e+00,6.066027016560741197e-02,0.000000000000000000e+00,0.000000000000000000e+00,-1.896581232577971221e+01,1.220814586014305370e+00,-4.423459435241764992e-01,0.000000000000000000e+00,0.000000000000000000e+00,0.000000000000000000e+00,4.132793128421545781e+00,-1.378869978610761660e+00
1.515624999999998094e-03,0.000000000000000000e+00,0.000000000000000000e+00,5.955044238954941560e-02,0.000000000000000000e+00,0.000000000000000000e+00,-2.462207339346484858e+01,8.329771498462594792e-01,-6.068197113692078704e-01,0.000000000000000000e+00,0.000000000000000000e+00,0.000000000000000000e+00,4.273811696122894688e+00,-1.425906706760317055e+00
1.565624999999998225e-03,0.000000000000000000e+00,0.000000000000000000e+00,5.826606557024995720e-02,0.000000000000000000e+00,0.000000000000000000e+00,-2.696637325838932497e+01,9.506023466007841316e-01,-7.113056329885173446e-01,0.000000000000000000e+00,0.000000000000000000e+00,0.000000000000000000e+00,4.414832932411616007e+00,-1.473445923994827877e+00
1.615624999999998356e-03,0.000000000000000000e+00,0.000000000000000000e+00,5.676459496891780865e-02,0.000000000000000000e+00,0.000000000000000000e+00,-3.395284881987929282e+01,6.325624447492463887e-01,-5.459354391748398871e-01,0.000000000000000000e+00,0.000000000000000000e+00,0.000000000000000000e+00,4.555855152930604390e+00,-1.520905164587784908e+00
1.653124999999998346e-03,0.000000000000000000e+00,0.000000000000000000e+00,5.533364411831517837e-02,0.000000000000000000e+00,0.000000000000000000e+00,-4.374141037760136896e+01,2.334377564009127715e-01,-2.795242579261639215e-01,0.000000000000000000e+00,0.000000000000000000e+00,0.000000000000000000e+00,4.661542683629686046e+00,-1.555075708282490643e+00
1.703124999999998043e-03,0.000000000000000000e+00,0.000000000000000000e+00,5.280362208375107697e-02,0.000000000000000000e+00,0.000000000000000000e+00,-5.707104792250758152e+01,2.398463975894764635e-02,1.434400124679695854e-01,0.000000000000000000e+00,0.000000000000000000e+00,0.000000000000000000e+00,4.802841477682582294e+00,-1.600983034180522679e+00
1.759374999999997703e-03,0.000000000000000000e+00,0.000000000000000000e+00,4.926900135272543196e-02,0.000000000000000000e+00,0.000000000000000000e+00,-6.745592451568985837e+01,2.784321513209456200e-01,3.149422197019881020e-01,0.000000000000000000e+00,0.000000000000000000e+00,0.000000000000000000e+00,4.961525630576887558e+00,-1.652810239461408148e+00
1.809374999999997400e-03,0.000000000000000000e+00,0.000000000000000000e+00,4.584390881972811443e-02,0.000000000000000000e+00,0.000000000000000000e+00,-6.801235712564928804e+01,8.212841976540470323e-01,5.096637476938876699e-01,0.000000000000000000e+00,0.000000000000000000e+00,0.000000000000000000e+00,5.102533646300922321e+00,-1.699402656616075813e+00
1.871874999999997239e-03,0.000000000000000000e+00,0.000000000000000000e+00,4.191303074036491910e-02,0.000000000000000000e+00,0.000000000000000000e+00,-5.571811998244891839e+01,1.599235026113569047e+00,7.468270312182664350e-01,0.000000000000000000e+00,0.000000000000000000e+00,0.000000000000000000e+00,5.278773362719342721e+00,-1.758446573611975650e+00
1.921874999999997370e-03,0.000000000000000000e+00,0.000000000000000000e+00,3.951021663011602264e-02,0.000000000000000000e+00,0.000000000000000000e+00,-4.027575662422297142e+01,1.999204658952291158e+00,9.004357666627015311e-01,0.000000000000000000e+00,0.000000000000000000e+00,0.000000000000000000e+00,5.419763403953470338e+00,-1.805909359796652014e+00
1.971874999999997501e-03,0.000000000000000000e+00,0.000000000000000000e+00,3.791918336572538961e-02,0.000000000000000000e+00,0.000000000000000000e+00,-2.322731732981084818e+01,2.155873120386004871e+00,1.133627157565136656e+00,0.000000000000000000e+00,0.000000000000000000e+00,0.000000000000000000e+00,5.560754129874466933e+00,-1.853118512556488851e+00
2.021874999999997199e-03,0.000000000000000000e+00,0.000000000000000000e+00,3.720995170322861229e-02,0.000000000000000000e+00,0.000000000000000000e+00,-5.045975635111211943e+00,2.223423985172432893e+00,1.250263178475261139e+00,0.000000000000000000e+00,0.000000000000000000e+00,0.000000000000000000e+00,5.701745639812851429e+00,-1.900036799000152987e+00
2.071874999999996896e-03,0.000000000000000000e+00,0.000000000000000000e+00,3.740123747195023274e-02,0.000000000000000000e+00,0.000000000000000000e+00,1.255518385044157803e+01,2.345429137984317070e+00,1.164029693933244847e+00,0.000000000000000000e+00,0.000000000000000000e+00,0.000000000000000000e+00,5.842737970636200373e+00,-1.946922128476785474e+00
2.146874999999996876e-03,0.000000000000000000e+00,0.000000000000000000e+00,3.921106955848507880e-02,0.000000000000000000e+00,0.000000000000000000e+00,3.528062111740331375e+01,2.747254231739734820e+00,7.679727333960407742e-01,0.000000000000000000e+00,0.000000000000000000e+00,0.000000000000000000e+00,6.054228025118860046e+00,-2.017985484710769661e+00
2.196874999999997007e-03,0.000000000000000000e+00,0.000000000000000000e+00,4.131860163733026142e-02,0.000000000000000000e+00,0.000000000000000000e+00,4.905051444478048950e+01,2.913151096289584352e+00,5.954616896010932470e-01,0.000000000000000000e+00,0.000000000000000000e+00,0.000000000000000000e+00,6.195152578937789478e+00,-2.065651161528050839e+00
2.246874999999997138e-03,0.000000000000000000e+00,0.000000000000000000e+00,4.402740236778229094e-02,0.000000000000000000e+00,0.000000000000000000e+00,5.929666394913673599e+01,3.006462875300547122e+00,3.924433111403048402e-01,0.000000000000000000e+00,0.000000000000000000e+00,0.000000000000000000e+00,6.336217532565750155e+00,-2.113104961614982624e+00
2.253124999999997317e-03,0.000000000000000000e+00,0.000000000000000000e+00,4.438882339633520857e-02,0.000000000000000000e+00,0.000000000000000000e+00,6.026177257733046133e+01,3.017043379869815301e+00,3.577079774390552469e-01,0.000000000000000000e+00,0.000000000000000000e+00,0.000000000000000000e+00,6.353750638672166495e+00,-2.118822296344304856e+00
2.303124999999998750e-03,0.000000000000000000e+00,0.000000000000000000e+00,4.754978086273733973e-02,0.000000000000000000e+00,0.000000000000000000e+00,6.539286547241493963e+01,3.125290150185324300e+00,-4.851521048171393222e-03,0.000000000000000000e+00,0.000000000000000000e+00,0.000000000000000000e+00,6.494665918390887249e+00,-2.165888377656002728e+00
2.359374999999998626e-03,0.000000000000000000e+00,0.000000000000000000e+00,5.132337630531165484e-02,0.000000000000000000e+00,0.000000000000000000e+00,6.844511695166127652e+01,3.267616403681863790e+00,-4.984221085700787368e-01,0.000000000000000000e+00,0.000000000000000000e+00,0.000000000000000000e+00,6.653563455743289445e+00,-2.218551220821447956e+00
2.409374999999998324e-03,0.000000000000000000e+00,0.000000000000000000e+00,5.477133079362610235e-02,0.000000000000000000e+00,0.000000000000000000e+00,6.926040333288386819e+01,3.371345699613530922e+00,-8.898102260271502084e-01,0.000000000000000000e+00,0.000000000000000000e+00,0.000000000000000000e+00,6.794540181408165402e+00,-2.265556316372609125e+00
2.459374999999998021e-03,0.000000000000000000e+00,0.000000000000000000e+00,5.821519451309351695e-02,0.000000000000000000e+00,0.000000000000000000e+00,6.818382539603369707e+01,3.397215596424377537e+00,-1.161327848997651957e+00,0.000000000000000000e+00,0.000000000000000000e+00,0.000000000000000000e+00,6.935356707192977588e+00,-2.312706687460095445e+00
2.509374999999997718e-03,0.000000000000000000e+00,0.000000000000000000e+00,6.154999651022593360e-02,0.000000000000000000e+00,0.000000000000000000e+00,6.485576493004184329e+01,3.529432783992197731e+00,-1.483089980439842304e+00,0.000000000000000000e+00,0.000000000000000000e+00,0.000000000000000000e+00,7.076374272676985377e+00,-2.359907344198496570e+00
2.559374999999997416e-03,0.000000000000000000e+00,0.000000000000000000e+00,6.463318681886032202e-02,0.000000000000000000e+00,0.000000000000000000e+00,5.815615535074180542e+01,3.540364928918786624e+00,-1.567626158722045693e+00,0.000000000000000000e+00,0.000000000000000000e+00,0.000000000000000000e+00,7.217388079897676612e+00,-2.407212909278094504e+00
2.609374999999997113e-03,0.000000000000000000e+00,0.000000000000000000e+00,6.733617638999780941e-02,0.000000000000000000e+00,0.000000000000000000e+00,4.980983057861335084e+01,3.342512356674815610e+00,-1.432343907651906223e+00,0.000000000000000000e+00,0.000000000000000000e+00,0.000000000000000000e+00,7.358398922880588167e+00,-2.454500748670470411e+00
2.659374999999996811e-03,0.000000000000000000e+00,0.000000000000000000e+00,6.960290157372210629e-02,0.000000000000000000e+00,0.000000000000000000e+00,4.081877206484205090e+01,3.077866966887906397e+00,-1.186702307910758813e+00,0.000000000000000000e+00,0.000000000000000000e+00,0.000000000000000000e+00,7.499407429595892793e+00,-2.501583833836238391e+00
2.734374999999996791e-03,0.000000000000000000e+00,0.000000000000000000e+00,7.216370253555201564e-02,0.000000000000000000e+00,0.000000000000000000e+00,2.762646363397130500e+01,2.739580006297447579e+00,-7.740680093196798950e-01,0.000000000000000000e+00,0.000000000000000000e+00,0.000000000000000000e+00,7.710917093803869804e+00,-2.571819894716887323e+00
2.784374999999996922e-03,0.000000000000000000e+00,0.000000000000000000e+00,7.334388197300384382e-02,0.000000000000000000e+00,0.000000000000000000e+00,1.956327194103359446e+01,2.577033304093134358e+00,-5.130043274928182129e-01,0.000000000000000000e+00,0.000000000000000000e+00,0.000000000000000000e+00,7.851952738867927550e+00,-2.618606706611557478e+00
2.834374999999997053e-03,0.000000000000000000e+00,0.000000000000000000e+00,7.414440161779004002e-02,0.000000000000000000e+00,0.000000000000000000e+00,1.246557927281394917e+01,2.473602417457721359e+00,-2.856505724851803873e-01,0.000000000000000000e+00,0.000000000000000000e+00,0.000000000000000000e+00,7.992926599056695558e+00,-2.665444271555814648e+00
2.884374999999997184e-03,0.000000000000000000e+00,0.000000000000000000e+00,7.462195866349295714e-02,0.000000000000000000e+00,0.000000000000000000e+00,6.624822745037594274e+00,2.417422971292691347e+00,-8.855712515324562495e-02,0.000000000000000000e+00,0.000000000000000000e+00,0.000000000000000000e+00,8.133944778215010274e+00,-2.712340194127862425e+00
2.934374999999997315e-03,0.000000000000000000e+00,0.000000000000000000e+00,7.483672873775597256e-02,0.000000000000000000e+00,0.000000000000000000e+00,1.968950783349693312e+00,2.192870203095637738e+00,-4.798754098477720637e-02,0.000000000000000000e+00,0.000000000000000000e+00,0.000000000000000000e+00,8.274933228977129573e+00,-2.759839730310302386e+00
2.984374999999997446e-03,0.000000000000000000e+00,0.000000000000000000e+00,7.485409949999059787e-02,0.000000000000000000e+00,0.000000000000000000e+00,-1.282998035298000383e+00,2.121108235258147179e+00,-6.491228831836910046e-03,0.000000000000000000e+00,0.000000000000000000e+00,0.000000000000000000e+00,8.415939292486967815e+00,-2.806954663276026274e+00
3.034374999999997578e-03,0.000000000000000000e+00,0.000000000000000000e+00,7.474139777171427690e-02,0.000000000000000000e+00,0.000000000000000000e+00,-3.224882805637824035e+00,2.122774867234453744e+00,8.098699327386618685e-02,0.000000000000000000e+00,0.000000000000000000e+00,0.000000000000000000e+00,8.556937733051908523e+00,-2.853502258558820781e+00
3.084374999999997709e-03,0.000000000000000000e+00,0.000000000000000000e+00,7.457852148339927378e-02,0.000000000000000000e+00,0.000000000000000000e+00,-3.299241198137570663e+00,2.203061841971982293e+00,1.639231315160006586e-01,0.000000000000000000e+00,0.000000000000000000e+00,0.000000000000000000e+00,8.697935628592134094e+00,-2.900079700224371226e+00
3.134374999999997840e-03,0.000000000000000000e+00,0.000000000000000000e+00,7.441791141039640067e-02,0.000000000000000000e+00,0.000000000000000000e+00,-3.119778018406416553e+00,2.275836286668523556e+00,2.616124610640668813e-01,0.000000000000000000e+00,0.000000000000000000e+00,0.000000000000000000e+00,8.838940679762215424e+00,-2.946853898975711150e+00
3.159374999999997689e-03,0.000000000000000000e+00,0.000000000000000000e+00,7.436155880300088228e-02,0.000000000000000000e+00,0.000000000000000000e+00,-1.651067701932617426e+00,2.324616200743406580e+00,3.006085039192176733e-01,0.000000000000000000e+00,0.000000000000000000e+00,0.000000000000000000e+00,8.909268944698407466e+00,-2.969676440522922789e+00
3.209374999999997386e-03,0.000000000000000000e+00,0.000000000000000000e+00,7.429795415356309218e-02,0.000000000000000000e+00,0.000000000000000000e+00,-8.371645037386757915e-01,2.431927610083653324e+00,3.759715302496344225e-01,0.000000000000000000e+00,0.000000000000000000e+00,0.000000000000000000e+00,9.050032546710671255e+00,-3.017493764042360471e+00
3.259374999999997084e-03,0.000000000000000000e+00,0.000000000000000000e+00,7.428015975610070820e-02,0.000000000000000000e+00,0.000000000000000000e+00,9.590116241212355563e-02,2.485566749253933061e+00,5.842455632451142300e-01,0.000000000000000000e+00,0.000000000000000000e+00,0.000000000000000000e+00,9.190892064804572215e+00,-3.064935962506193157e+00
3.309374999999996781e-03,0.000000000000000000e+00,0.000000000000000000e+00,7.434227950210026137e-02,0.000000000000000000e+00,0.000000000000000000e+00,2.343925421066539894e+00,2.655933566569218307e+00,7.552763600897582918e-01,0.000000000000000000e+00,0.000000000000000000e+00,0.000000000000000000e+00,9.331819584836527071e+00,-3.111490887707665021e+00
3.359374999999996479e-03,0.000000000000000000e+00,0.000000000000000000e+00,7.454405740887738718e-02,0.000000000000000000e+00,0.000000000000000000e+00,5.587797098138565843e+00,2.773559773467423550e+00,7.270630123150420010e-01,0.000000000000000000e+00,0.000000000000000000e+00,0.000000000000000000e+00,9.472794337466224235e+00,-3.158184493299401652e+00
3.434374999999996458e-03,0.000000000000000000e+00,0.000000000000000000e+00,7.516527378761447831e-02,0.000000000000000000e+00,0.000000000000000000e+00,1.076204118533926568e+01,2.821638157927696788e+00,5.396693124368834305e-01,0.000000000000000000e+00,0.000000000000000000e+00,0.000000000000000000e+00,9.684304305815485847e+00,-3.228748655439150461e+00
3.484374999999996590e-03,0.000000000000000000e+00,0.000000000000000000e+00,7.578290053798152071e-02,0.000000000000000000e+00,0.000000000000000000e+00,1.395261945048610031e+01,2.795342891056845858e+00,3.976956046995249183e-01,0.000000000000000000e+00,0.000000000000000000e+00,0.000000000000000000e+00,9.826556387664053815e+00,-3.275945783284945456e+00
3.534374999999996721e-03,0.000000000000000000e+00,0.000000000000000000e+00,7.654886335523217178e-02,0.000000000000000000e+00,0.000000000000000000e+00,1.668112909698034585e+01,2.749047268359373408e+00,2.685043899210284857e-01,0.000000000000000000e+00,0.000000000000000000e+00,0.000000000000000000e+00,9.966336389494157899e+00,-3.322919916617508296e+00
3.584374999999996852e-03,0.000000000000000000e+00,0.000000000000000000e+00,7.745606718464953522e-02,0.000000000000000000e+00,0.000000000000000000e+00,1.960953248129940718e+01,2.704767681134608193e+00,1.484011110273587286e-01,0.000000000000000000e+00,0.000000000000000000e+00,0.000000000000000000e+00,1.010851819990260836e+01,-3.369932455101146473e+00
3.634374999999996983e-03,0.000000000000000000e+00,0.000000000000000000e+00,7.849612518177290221e-02,0.000000000000000000e+00,0.000000000000000000e+00,2.199356774373540091e+01,2.669118668389920401e+00,4.249360229451594473e-02,0.000000000000000000e+00,0.000000000000000000e+00,0.000000000000000000e+00,1.024837913968501546e+01,-3.416921495455640390e+00
3.684374999999997114e-03,0.000000000000000000e+00,0.000000000000000000e+00,7.965480808293172454e-02,0.000000000000000000e+00,0.000000000000000000e+00,2.435329707884735129e+01,2.647841879815790112e+00,-4.841121414892746166e-02,0.000000000000000000e+00,0.000000000000000000e+00,0.000000000000000000e+00,1.039047218164599506e+01,-3.464017906601856822e+00
3.734374999999997245e-03,0.000000000000000000e+00,0.000000000000000000e+00,8.091424602334706950e-02,0.000000000000000000e+00,0.000000000000000000e+00,2.602782716581053180e+01,2.642472740414660404e+00,-1.247086645717286196e-01,0.000000000000000000e+00,0.000000000000000000e+00,0.000000000000000000e+00,1.053042734489260113e+01,-3.511087669886518547e+00
3.784374999999997376e-03,0.000000000000000000e+00,0.000000000000000000e+00,8.224986815215286351e-02,0.000000000000000000e+00,0.000000000000000000e+00,2.739590128072503461e+01,2.653581640717386669e+00,-1.848663671460184510e-01,0.000000000000000000e+00,0.000000000000000000e+00,0.000000000000000000e+00,1.067242268706035979e+01,-3.558153712606191732e+00
3.834374999999997508e-03,0.000000000000000000e+00,0.000000000000000000e+00,8.363508297669912384e-02,0.000000000000000000e+00,0.000000000000000000e+00,2.801710647712774360e+01,2.675121259171830523e+00,-2.234333490646364662e-01,0.000000000000000000e+00,0.000000000000000000e+00,0.000000000000000000e+00,1.081247738892856880e+01,-3.605164775142439382e+00
3.859374999999997356e-03,0.000000000000000000e+00,0.000000000000000000e+00,8.433809984143469940e-02,0.000000000000000000e+00,0.000000000000000000e+00,2.810014541744143557e+01,2.685329680230224447e+00,-2.347959313626777067e-01,0.000000000000000000e+00,0.000000000000000000e+00,0.000000000000000000e+00,1.088299630648634775e+01,-3.628672914240973935e+00
3.909374999999997054e-03,0.000000000000000000e+00,0.000000000000000000e+00,8.573721634110588463e-02,0.000000000000000000e+00,0.000000000000000000e+00,2.776899454138628442e+01,2.709192129146683836e+00,-2.463028145162974858e-01,0.000000000000000000e+00,0.000000000000000000e+00,0.000000000000000000e+00,1.102405814258387551e+01,-3.675698474594716991e+00
3.959374999999998486e-03,0.000000000000000000e+00,0.000000000000000000e+00,8.710948165948087518e-02,0.000000000000000000e+00,0.000000000000000000e+00,2.708496974807628277e+01,2.734649383888013485e+00,-2.278804838032623958e-01,0.000000000000000000e+00,0.000000000000000000e+00,0.000000000000000000e+00,1.116512962653851559e+01,-3.722751779797290439e+00
4.009374999999998183e-03,0.000000000000000000e+00,0.000000000000000000e+00,8.844147279202251022e-02,0.000000000000000000e+00,0.000000000000000000e+00,2.615144777388638175e+01,2.812097108677734880e+00,-1.635608130518295122e-01,0.000000000000000000e+00,0.000000000000000000e+00,0.000000000000000000e+00,1.130619299743894857e+01,-3.769818850812501676e+00
4.059374999999997881e-03,0.000000000000000000e+00,0.000000000000000000e+00,8.971419856722828712e-02,0.000000000000000000e+00,0.000000000000000000e+00,2.476074605957939667e+01,2.785121878091183056e+00,-1.560166402223662208e-01,0.000000000000000000e+00,0.000000000000000000e+00,0.000000000000000000e+00,1.144724340162929010e+01,-3.816865187841156803e+00
4.109374999999997578e-03,0.000000000000000000e+00,0.000000000000000000e+00,9.091756579362854362e-02,0.000000000000000000e+00,0.000000000000000000e+00,2.336406013630012879e+01,2.792106915373608000e+00,-1.472002855933867427e-01,0.000000000000000000e+00,0.000000000000000000e+00,0.000000000000000000e+00,1.158828347876990250e+01,-3.863874410919900360e+00
4.159374999999997276e-03,0.000000000000000000e+00,0.000000000000000000e+00,9.204703865745601787e-02,0.000000000000000000e+00,0.000000000000000000e+00,2.181545541792700860e+01,2.790394443836380134e+00,-1.309724458427766747e-01,0.000000000000000000e+00,0.000000000000000000e+00,0.000000000000000000e+00,1.172931533354769407e+01,-3.910856225664510966e+00
4.209374999999996973e-03,0.000000000000000000e+00,0.000000000000000000e+00,9.309747389568590048e-02,0.000000000000000000e+00,0.000000000000000000e+00,2.021760372494227909e+01,2.778359440078691733e+00,-1.143019617746447308e-01,0.000000000000000000e+00,0.000000000000000000e+00,0.000000000000000000e+00,1.187034064367637498e+01,-3.957824141316511835e+00
4.259374999999996671e-03,0.000000000000000000e+00,0.000000000000000000e+00,9.407114980258754477e-02,0.000000000000000000e+00,0.000000000000000000e+00,1.873313193450522363e+01,2.760561028036214726e+00,-9.353021818052353886e-02,0.000000000000000000e+00,0.000000000000000000e+00,0.000000000000000000e+00,1.201151358068775998e+01,-4.004795268344955694e+00
4.309374999999996368e-03,0.000000000000000000e+00,0.000000000000000000e+00,9.497514527608372226e-02,0.000000000000000000e+00,0.000000000000000000e+00,1.742316160945953740e+01,2.729707873562054132e+00,-7.012731363311759669e-02,0.000000000000000000e+00,0.000000000000000000e+00,0.000000000000000000e+00,1.215237900838402219e+01,-4.051780810890256213e+00
4.359374999999996066e-03,0.000000000000000000e+00,0.000000000000000000e+00,9.582008686121538943e-02,0.000000000000000000e+00,0.000000000000000000e+00,1.637580917515444767e+01,2.704457115809977719e+00,-4.456205721123070174e-02,0.000000000000000000e+00,0.000000000000000000e+00,0.000000000000000000e+00,1.229348115955132670e+01,-4.098770803631069271e+00
4.409374999999995763e-03,0.000000000000000000e+00,0.000000000000000000e+00,9.662018754037351997e-02,0.000000000000000000e+00,0.000000000000000000e+00,1.562584426302368712e+01,2.678095270898049662e+00,-2.509519513134687158e-02,0.000000000000000000e+00,0.000000000000000000e+00,0.000000000000000000e+00,1.243440629101631956e+01,-4.145757709647831746e+00
4.459374999999995461e-03,0.000000000000000000e+00,0.000000000000000000e+00,9.738965063653243215e-02,0.000000000000000000e+00,0.000000000000000000e+00,1.515307961402823445e+01,2.657605131158626399e+00,-1.449262755627575387e-02,0.000000000000000000e+00,0.000000000000000000e+00,0.000000000000000000e+00,1.257545831193396957e+01,-4.192727282639738817e+00
4.509374999999995158e-03,0.000000000000000000e+00,0.000000000000000000e+00,9.815111833118730922e-02,0.000000000000000000e+00,0.000000000000000000e+00,1.522435976847111050e+01,2.676596123335152289e+00,-4.217774185137623116e-02,0.000000000000000000e+00,0.000000000000000000e+00,0.000000000000000000e+00,1.271670549494416136e+01,-4.239936081866583883e+00
4.559374999999994856e-03,0.000000000000000000e+00,0.000000000000000000e+00,9.889659192870821347e-02,0.000000000000000000e+00,0.000000000000000000e+00,1.498736257136852323e+01,2.638706137972099963e+00,-2.087528406995875496e-02,0.000000000000000000e+00,0.000000000000000000e+00,0.000000000000000000e+00,1.285785799709875832e+01,-4.287024525190885171e+00
4.609374999999994553e-03,0.000000000000000000e+00,0.000000000000000000e+00,9.964982295504519472e-02,0.000000000000000000e+00,0.000000000000000000e+00,1.527289295784899714e+01,2.615109932570560236e+00,-1.541760269818398532e-02,0.000000000000000000e+00,0.000000000000000000e+00,0.000000000000000000e+00,1.299894287381824398e+01,-4.333855640220181549e+00
4.659374999999994250e-03,0.000000000000000000e+00,0.000000000000000000e+00,1.004252282100484145e-01,0.000000000000000000e+00,0.000000000000000000e+00,1.578702483185848493e+01,2.602655387798371578e+00,-1.853650343144829307e-02,0.000000000000000000e+00,0.000000000000000000e+00,0.000000000000000000e+00,1.313998031743853545e+01,-4.380656569783821119e+00
4.709374999999993948e-03,0.000000000000000000e+00,0.000000000000000000e+00,1.012324701169637770e-01,0.000000000000000000e+00,0.000000000000000000e+00,1.653953555824967836e+01,2.601338107636940400e+00,-2.440008353753000264e-02,0.000000000000000000e+00,0.000000000000000000e+00,0.000000000000000000e+00,1.328098528848857640e+01,-4.427570839007967329e+00
4.759374999999993645e-03,0.000000000000000000e+00,0.000000000000000000e+00,1.020796478642168881e-01,0.000000000000000000e+00,0.000000000000000000e+00,1.739776468956458544e+01,2.608389574604331518e+00,-3.246869468257068680e-02,0.000000000000000000e+00,0.000000000000000000e+00,0.000000000000000000e+00,1.342089923453994516e+01,-4.474518076651823328e+00
4.809374999999993343e-03,0.000000000000000000e+00,0.000000000000000000e+00,1.029730706074341723e-01,0.000000000000000000e+00,0.000000000000000000e+00,1.830242082204440379e+01,2.618041276324407196e+00,-4.451548418627037512e-02,0.000000000000000000e+00,0.000000000000000000e+00,0.000000000000000000e+00,1.356296266915215654e+01,-4.521635593380543661e+00
4.859374999999993040e-03,0.000000000000000000e+00,0.000000000000000000e+00,1.039089266372653503e-01,0.000000000000000000e+00,0.000000000000000000e+00,1.915876007396322223e+01,2.624792925604216620e+00,-6.318964022085231391e-02,0.000000000000000000e+00,0.000000000000000000e+00,0.000000000000000000e+00,1.370292819054811595e+01,-4.568605537655578530e+00
4.909374999999992738e-03,0.000000000000000000e+00,0.000000000000000000e+00,1.048882953957246122e-01,0.000000000000000000e+00,0.000000000000000000e+00,1.999648680841574944e+01,2.629960705045220060e+00,-8.513534843475566161e-02,0.000000000000000000e+00,0.000000000000000000e+00,0.000000000000000000e+00,1.384492886999983341e+01,-4.615636942264347731e+00
4.959374999999992435e-03,0.000000000000000000e+00,0.000000000000000000e+00,1.059045274262814113e-01,0.000000000000000000e+00,0.000000000000000000e+00,2.066777510166476617e+01,2.635025803270131473e+00,-1.054719338313655635e-01,0.000000000000000000e+00,0.000000000000000000e+00,0.000000000000000000e+00,1.398496557465600532e+01,-4.662606799433322458e+00
5.009374999999992133e-03,0.000000000000000000e+00,0.000000000000000000e+00,1.069568819680526695e-01,0.000000000000000000e+00,0.000000000000000000e+00,2.152166504162516958e+01,2.630837706805636778e+00,-1.475972590622240399e-01,0.000000000000000000e+00,0.000000000000000000e+00,0.000000000000000000e+00,1.412628307355829271e+01,-4.709864563876431376e+00
5.059374999999991830e-03,0.000000000000000000e+00,0.000000000000000000e+00,1.080358640350850968e-01,0.000000000000000000e+00,0.000000000000000000e+00,2.175836640327662863e+01,2.612550538666877920e+00,-1.742750564678084979e-01,0.000000000000000000e+00,0.000000000000000000e+00,0.000000000000000000e+00,1.426749695938216611e+01,-4.757018462920033386e+00
5.109374999999991528e-03,0.000000000000000000e+00,0.000000000000000000e+00,1.091338123719524794e-01,0.000000000000000000e+00,0.000000000000000000e+00,2.212041961448130323e+01,2.598023484230531199e+00,-1.767712391586489795e-01,0.000000000000000000e+00,0.000000000000000000e+00,0.000000000000000000e+00,1.440863514338916751e+01,-4.803905722496446096e+00
5.159374999999991225e-03,0.000000000000000000e+00,0.000000000000000000e+00,1.102449715765923960e-01,0.000000000000000000e+00,0.000000000000000000e+00,2.247726321404887884e+01,2.611481490616255563e+00,-1.985712021124868276e-01,0.000000000000000000e+00,0.000000000000000000e+00,0.000000000000000000e+00,1.454971867098798910e+01,-4.850738287517576630e+00
5.209374999999990923e-03,0.000000000000000000e+00,0.000000000000000000e+00,1.113496913739653177e-01,0.000000000000000000e+00,0.000000000000000000e+00,2.180917383505813589e+01,2.610083356112236963e+00,-2.235752955338182468e-01,0.000000000000000000e+00,0.000000000000000000e+00,0.000000000000000000e+00,1.469076332317390232e+01,-4.897663350334609866e+00
5.259374999999990620e-03,0.000000000000000000e+00,0.000000000000000000e+00,1.124387508027814703e-01,0.000000000000000000e+00,0.000000000000000000e+00,2.182519654473576054e+01,2.605581484333385323e+00,-2.333999973270398098e-01,0.000000000000000000e+00,0.000000000000000000e+00,0.000000000000000000e+00,1.483108694513844839e+01,-4.944597746562803486e+00
5.309374999999990317e-03,0.000000000000000000e+00,0.000000000000000000e+00,1.135207404308208740e-01,0.000000000000000000e+00,0.000000000000000000e+00,2.140412124422569562e+01,2.611746258371904883e+00,-2.243131330585844685e-01,0.000000000000000000e+00,0.000000000000000000e+00,0.000000000000000000e+00,1.497280458197928965e+01,-4.991695215878292125e+00
5.359374999999990015e-03,0.000000000000000000e+00,0.000000000000000000e+00,1.145837397264953400e-01,0.000000000000000000e+00,0.000000000000000000e+00,2.115160215379239261e+01,2.621059289052228181e+00,-1.925853559269269377e-01,0.000000000000000000e+00,0.000000000000000000e+00,0.000000000000000000e+00,1.511306070187450601e+01,-5.038635770570218497e+00
5.409374999999989712e-03,0.000000000000000000e+00,0.000000000000000000e+00,1.155949055873371212e-01,0.000000000000000000e+00,0.000000000000000000e+00,1.927679328933369973e+01,2.917988969031070745e+00,-4.860447277545419387e-01,0.000000000000000000e+00,0.000000000000000000e+00,0.000000000000000000e+00,1.525481840022201396e+01,-5.085737923012648487e+00
5.459374999999989410e-03,0.000000000000000000e+00,0.000000000000000000e+00,1.164819997519511152e-01,0.000000000000000000e+00,0.000000000000000000e+00,1.622586537947626084e+01,2.813721856186945480e+00,-4.696669954821558468e-01,0.000000000000000000e+00,0.000000000000000000e+00,0.000000000000000000e+00,1.539505708608170664e+01,-5.132995336236515271e+00
5.509374999999989107e-03,0.000000000000000000e+00,0.000000000000000000e+00,1.172425550007662187e-01,0.000000000000000000e+00,0.000000000000000000e+00,1.417780645927342142e+01,2.705678695623663366e+00,-3.734383884479233195e-01,0.000000000000000000e+00,0.000000000000000000e+00,0.000000000000000000e+00,1.553681371587276949e+01,-5.180264232191387208e+00
5.559374999999988805e-03,0.000000000000000000e+00,0.000000000000000000e+00,1.179364167445231953e-01,0.000000000000000000e+00,0.000000000000000000e+00,1.358319127935821413e+01,2.584103805381235741e+00,-2.402866796630629687e-01,0.000000000000000000e+00,0.000000000000000000e+00,0.000000000000000000e+00,1.567706844670227717e+01,-5.227151619368728852e+00
5.609374999999988502e-03,0.000000000000000000e+00,0.000000000000000000e+00,1.186001441406337037e-01,0.000000000000000000e+00,0.000000000000000000e+00,1.296128750460863266e+01,2.532180057080051672e+00,-1.460859482739229054e-01,0.000000000000000000e+00,0.000000000000000000e+00,0.000000000000000000e+00,1.581879706107839567e+01,-5.273806062974813358e+00
5.659374999999988200e-03,0.000000000000000000e+00,0.000000000000000000e+00,1.192520293049954550e-01,0.000000000000000000e+00,0.000000000000000000e+00,1.311377172628555776e+01,2.521182729389539023e+00,-7.266313527339091083e-02,0.000000000000000000e+00,0.000000000000000000e+00,0.000000000000000000e+00,1.595908922322976231e+01,-5.320423342964170743e+00
5.709374999999987897e-03,0.000000000000000000e+00,0.000000000000000000e+00,1.199213394756959289e-01,0.000000000000000000e+00,0.000000000000000000e+00,1.369896806887014939e+01,2.569043693382818461e+00,-4.008444552963986302e-02,0.000000000000000000e+00,0.000000000000000000e+00,0.000000000000000000e+00,1.610037122176921542e+01,-5.367473914845751537e+00
5.759374999999987595e-03,0.000000000000000000e+00,0.000000000000000000e+00,1.206189893420916148e-01,0.000000000000000000e+00,0.000000000000000000e+00,1.434855351418310221e+01,2.598876238157722174e+00,-1.729819160251220775e-02,0.000000000000000000e+00,0.000000000000000000e+00,0.000000000000000000e+00,1.624155863365501418e+01,-5.414617613294941734e+00
5.809374999999987292e-03,0.000000000000000000e+00,0.000000000000000000e+00,1.213612331530375676e-01,0.000000000000000000e+00,0.000000000000000000e+00,1.546841317912184088e+01,2.627826113231030547e+00,3.633160282002068781e-02,0.000000000000000000e+00,0.000000000000000000e+00,0.000000000000000000e+00,1.638267722166864004e+01,-5.461633709373614032e+00
5.859374999999986990e-03,0.000000000000000000e+00,0.000000000000000000e+00,1.221677237601407617e-01,0.000000000000000000e+00,0.000000000000000000e+00,1.700455928093085944e+01,2.777882646788704779e+00,1.826740678865615419e-01,0.000000000000000000e+00,0.000000000000000000e+00,0.000000000000000000e+00,1.652374637331096352e+01,-5.508605239708508350e+00
5.909374999999986687e-03,0.000000000000000000e+00,0.000000000000000000e+00,1.230353413567496224e-01,0.000000000000000000e+00,0.000000000000000000e+00,1.729832581767319866e+01,2.924772313100774568e+00,1.879271675923042673e-01,0.000000000000000000e+00,0.000000000000000000e+00,0.000000000000000000e+00,1.666478059337789830e+01,-5.555597824937164475e+00
5.959374999999986385e-03,0.000000000000000000e+00,0.000000000000000000e+00,1.239105156199584029e-01,0.000000000000000000e+00,0.000000000000000000e+00,1.774896114811928527e+01,2.900275523473739625e+00,1.587577674022893903e-01,0.000000000000000000e+00,0.000000000000000000e+00,0.000000000000000000e+00,1.680507769443423527e+01,-5.602522579360956989e+00
6.009374999999986082e-03,0.000000000000000000e+00,0.000000000000000000e+00,1.248206507914702418e-01,0.000000000000000000e+00,0.000000000000000000e+00,1.862508881842625641e+01,2.843316608169970117e+00,7.208935032910034069e-02,0.000000000000000000e+00,0.000000000000000000e+00,0.000000000000000000e+00,1.694680724438154584e+01,-5.649619540303749687e+00
6.059374999999985779e-03,0.000000000000000000e+00,0.000000000000000000e+00,1.257715820360286174e-01,0.000000000000000000e+00,0.000000000000000000e+00,1.943528145629813153e+01,2.804106971336642218e+00,-1.603595619878434714e-02,0.000000000000000000e+00,0.000000000000000000e+00,0.000000000000000000e+00,1.708706340262125067e+01,-5.696619468673001840e+00
6.109374999999985477e-03,0.000000000000000000e+00,0.000000000000000000e+00,1.267687336893991434e-01,0.000000000000000000e+00,0.000000000000000000e+00,2.040971414960336716e+01,2.834715719480569884e+00,-9.040285485585641823e-02,0.000000000000000000e+00,0.000000000000000000e+00,0.000000000000000000e+00,1.722834283179370374e+01,-5.743882690834283267e+00
6.159374999999985174e-03,0.000000000000000000e+00,0.000000000000000000e+00,1.278030961892573092e-01,0.000000000000000000e+00,0.000000000000000000e+00,2.085304848561028379e+01,2.823778877405275445e+00,-1.136996559567732684e-01,0.000000000000000000e+00,0.000000000000000000e+00,0.000000000000000000e+00,1.736952958279585602e+01,-5.791014960790520583e+00
6.209374999999984872e-03,0.000000000000000000e+00,0.000000000000000000e+00,1.288584035999285615e-01,0.000000000000000000e+00,0.000000000000000000e+00,2.124487904404718819e+01,2.784092519679479238e+00,-1.210003824547893486e-01,0.000000000000000000e+00,0.000000000000000000e+00,0.000000000000000000e+00,1.751064878593897589e+01,-5.837864022230086825e+00
6.259374999999984569e-03,0.000000000000000000e+00,0.000000000000000000e+00,1.299321242392575959e-01,0.000000000000000000e+00,0.000000000000000000e+00,2.161467996417326276e+01,2.743693962880012105e+00,-1.300345293591789742e-01,0.000000000000000000e+00,0.000000000000000000e+00,0.000000000000000000e+00,1.765171936769765892e+01,-5.884684733566427184e+00
6.309374999999984267e-03,0.000000000000000000e+00,0.000000000000000000e+00,1.310211247323789518e-01,0.000000000000000000e+00,0.000000000000000000e+00,2.187754519719249302e+01,2.718720065735523050e+00,-1.444128946196883978e-01,0.000000000000000000e+00,0.000000000000000000e+00,0.000000000000000000e+00,1.779275550096636138e+01,-5.931644983671726656e+00
6.359374999999983964e-03,0.000000000000000000e+00,0.000000000000000000e+00,1.321158667591801894e-01,0.000000000000000000e+00,0.000000000000000000e+00,2.197574070160213466e+01,2.710920561300777631e+00,-1.596566122693298118e-01,0.000000000000000000e+00,0.000000000000000000e+00,0.000000000000000000e+00,1.793310078990324996e+01,-5.978636853866995615e+00
6.409374999999983662e-03,0.000000000000000000e+00,0.000000000000000000e+00,1.332106744379365493e-01,0.000000000000000000e+00,0.000000000000000000e+00,2.177175423956695610e+01,2.714414377560157909e+00,-1.737578180238162073e-01,0.000000000000000000e+00,0.000000000000000000e+00,0.000000000000000000e+00,1.807478599739056691e+01,-6.025767126193079193e+00
6.459374999999983359e-03,0.000000000000000000e+00,0.000000000000000000e+00,1.342885123156474514e-01,0.000000000000000000e+00,0.000000000000000000e+00,2.137527259596322082e+01,2.719918104381205737e+00,-1.827040370034989925e-01,0.000000000000000000e+00,0.000000000000000000e+00,0.000000000000000000e+00,1.821508293987553628e+01,-6.072700286707373607e+00
6.509374999999983057e-03,0.000000000000000000e+00,0.000000000000000000e+00,1.353454404030176583e-01,0.000000000000000000e+00,0.000000000000000000e+00,2.087796117282277564e+01,2.718500029151034170e+00,-1.888423906270559338e-01,0.000000000000000000e+00,0.000000000000000000e+00,0.000000000000000000e+00,1.835679342533768121e+01,-6.119753825657889834e+00
6.559374999999982754e-03,0.000000000000000000e+00,0.000000000000000000e+00,1.363786278534391272e-01,0.000000000000000000e+00,0.000000000000000000e+00,2.046650042146907467e+01,2.708332399497192622e+00,-1.905668393189617060e-01,0.000000000000000000e+00,0.000000000000000000e+00,0.000000000000000000e+00,1.849708402809191199e+01,-6.167018135459085393e+00
6.609374999999982452e-03,0.000000000000000000e+00,0.000000000000000000e+00,1.373927031752288641e-01,0.000000000000000000e+00,0.000000000000000000e+00,2.008403656178671071e+01,2.703138461435684814e+00,-1.811860497776049683e-01,0.000000000000000000e+00,0.000000000000000000e+00,0.000000000000000000e+00,1.863878544991048969e+01,-6.213962959578672951e+00
6.659374999999982149e-03,0.000000000000000000e+00,0.000000000000000000e+00,1.383807702658997885e-01,0.000000000000000000e+00,0.000000000000000000e+00,1.944892925868555267e+01,2.689372568700692412e+00,-1.749869456468150508e-01,0.000000000000000000e+00,0.000000000000000000e+00,0.000000000000000000e+00,1.877909750240613107e+01,-6.260693101890637990e+00
6.709374999999983581e-03,0.000000000000000000e+00,0.000000000000000000e+00,1.393486373794548261e-01,0.000000000000000000e+00,0.000000000000000000e+00,1.904517748695377932e+01,2.722008839062340702e+00,-1.458124738939264586e-01,0.000000000000000000e+00,0.000000000000000000e+00,0.000000000000000000e+00,1.892018668527995118e+01,-6.307638656848803649e+00
6.759374999999985013e-03,0.000000000000000000e+00,0.000000000000000000e+00,1.402975654077106282e-01,0.000000000000000000e+00,0.000000000000000000e+00,1.879149147132610764e+01,2.708755789313702422e+00,-1.527305277919233650e-01,0.000000000000000000e+00,0.000000000000000000e+00,0.000000000000000000e+00,1.906125473874506682e+01,-6.354689958584186726e+00
6.809374999999985578e-03,0.000000000000000000e+00,0.000000000000000000e+00,1.412337829677875745e-01,0.000000000000000000e+00,0.000000000000000000e+00,1.866637901683987977e+01,2.697183298843121246e+00,-1.559804606119994386e-01,0.000000000000000000e+00,0.000000000000000000e+00,0.000000000000000000e+00,1.920256923821734318e+01,-6.401701907798189595e+00
6.859374999999985276e-03,0.000000000000000000e+00,0.000000000000000000e+00,1.421624904256879873e-01,0.000000000000000000e+00,0.000000000000000000e+00,1.856050920681385463e+01,2.685692573988159193e+00,-1.574398356341126515e-01,0.000000000000000000e+00,0.000000000000000000e+00,0.000000000000000000e+00,1.934353103855049838e+01,-6.448682183611736285e+00
6.909374999999984973e-03,0.000000000000000000e+00,0.000000000000000000e+00,1.430900269180036544e-01,0.000000000000000000e+00,0.000000000000000000e+00,1.859827238087395784e+01,2.674523156748388697e+00,-1.590502360428339701e-01,0.000000000000000000e+00,0.000000000000000000e+00,0.000000000000000000e+00,1.948450259900743475e+01,-6.495657535090566981e+00
6.959374999999984671e-03,0.000000000000000000e+00,0.000000000000000000e+00,1.440234991125214636e-01,0.000000000000000000e+00,0.000000000000000000e+00,1.877720567768144022e+01,2.672165934240307905e+00,-1.588653199137721184e-01,0.000000000000000000e+00,0.000000000000000000e+00,0.000000000000000000e+00,1.962548158974787427e+01,-6.542643406545471052e+00
7.009374999999984368e-03,0.000000000000000000e+00,0.000000000000000000e+00,1.449669051356705929e-01,0.000000000000000000e+00,0.000000000000000000e+00,1.899139563744400760e+01,2.666235141949791831e+00,-1.674099950098737744e-01,0.000000000000000000e+00,0.000000000000000000e+00,0.000000000000000000e+00,1.976646621393508596e+01,-6.589641924186949495e+00
7.084374999999983914e-03,0.000000000000000000e+00,0.000000000000000000e+00,1.464057781690649429e-01,0.000000000000000000e+00,0.000000000000000000e+00,1.939678939524891277e+01,2.665381519940727362e+00,-1.799299833647363678e-01,0.000000000000000000e+00,0.000000000000000000e+00,0.000000000000000000e+00,1.997795009894796081e+01,-6.660154650036862023e+00
7.134374999999983612e-03,0.000000000000000000e+00,0.000000000000000000e+00,1.473823620059009076e-01,0.000000000000000000e+00,0.000000000000000000e+00,1.966732133907829194e+01,2.667373881180956197e+00,-1.866494606891007935e-01,0.000000000000000000e+00,0.000000000000000000e+00,0.000000000000000000e+00,2.011893320330411683e+01,-6.707154265461819698e+00
7.184374999999983309e-03,0.000000000000000000e+00,0.000000000000000000e+00,1.483719200515764836e-01,0.000000000000000000e+00,0.000000000000000000e+00,1.991456119813451409e+01,2.670413843444527924e+00,-1.921610092926378521e-01,0.000000000000000000e+00,0.000000000000000000e+00,0.000000000000000000e+00,2.025993502890421638e+01,-6.754146031189107724e+00
7.234374999999983007e-03,0.000000000000000000e+00,0.000000000000000000e+00,1.493441302226332090e-01,0.000000000000000000e+00,0.000000000000000000e+00,1.897982053682131465e+01,2.648346956276446562e+00,-1.677419105461905591e-01,0.000000000000000000e+00,0.000000000000000000e+00,0.000000000000000000e+00,2.040094542829580249e+01,-6.801126390453649861e+00
7.284374999999982704e-03,0.000000000000000000e+00,0.000000000000000000e+00,1.502348117657397730e-01,0.000000000000000000e+00,0.000000000000000000e+00,1.664977192553397245e+01,2.597989265441437823e+00,-1.121919498569021734e-01,0.000000000000000000e+00,0.000000000000000000e+00,0.000000000000000000e+00,2.054192523065476195e+01,-6.848056470697717835e+00
7.309374999999982553e-03,0.000000000000000000e+00,0.000000000000000000e+00,1.506230698962147951e-01,0.000000000000000000e+00,0.000000000000000000e+00,1.580029801887713603e+01,2.594796219452435881e+00,-1.055657110025673695e-01,0.000000000000000000e+00,0.000000000000000000e+00,0.000000000000000000e+00,2.061230242469771312e+01,-6.870754130913288016e+00
7.359374999999982250e-03,0.000000000000000000e+00,0.000000000000000000e+00,1.513681567959347107e-01,0.000000000000000000e+00,0.000000000000000000e+00,1.398902235199932065e+01,2.605439936744291529e+00,-1.019469178612572441e-01,0.000000000000000000e+00,0.000000000000000000e+00,0.000000000000000000e+00,2.075309137830857509e+01,-6.918294407831369952e+00
7.409374999999981948e-03,0.000000000000000000e+00,0.000000000000000000e+00,1.520397974385652995e-01,0.000000000000000000e+00,0.000000000000000000e+00,1.293798468604918916e+01,2.571897951719603892e+00,-1.258603940673382604e-01,0.000000000000000000e+00,0.000000000000000000e+00,0.000000000000000000e+00,2.089396540576661820e+01,-6.965474014067599029e+00
7.459374999999981645e-03,0.000000000000000000e+00,0.000000000000000000e+00,1.526824057969931314e-01,0.000000000000000000e+00,0.000000000000000000e+00,1.279074537584260263e+01,2.539930399340735168e+00,-1.529187295278396641e-01,0.000000000000000000e+00,0.000000000000000000e+00,0.000000000000000000e+00,2.103489979778203889e+01,-7.012366177706812920e+00
7.509374999999981343e-03,0.000000000000000000e+00,0.000000000000000000e+00,1.533357591495370376e-01,0.000000000000000000e+00,0.000000000000000000e+00,1.333761942612492213e+01,2.524337445699287308e+00,-1.643106035768870932e-01,0.000000000000000000e+00,0.000000000000000000e+00,0.000000000000000000e+00,2.117587616343494972e+01,-7.059212585960591646e+00
7.584374999999980889e-03,0.000000000000000000e+00,0.000000000000000000e+00,1.544040149225542891e-01,0.000000000000000000e+00,0.000000000000000000e+00,1.515166614364664177e+01,2.533996772305566303e+00,-1.631870311637255988e-01,0.000000000000000000e+00,0.000000000000000000e+00,0.000000000000000000e+00,2.138738334522305351e+01,-7.129629066359982836e+00
7.634374999999980586e-03,0.000000000000000000e+00,0.000000000000000000e+00,1.552040513662333032e-01,0.000000000000000000e+00,0.000000000000000000e+00,1.680685168227782711e+01,2.554725083124740781e+00,-1.638851958500529837e-01,0.000000000000000000e+00,0.000000000000000000e+00,0.000000000000000000e+00,2.152947991095431135e+01,-7.176756277172540166e+00
7.684374999999980284e-03,0.000000000000000000e+00,0.000000000000000000e+00,1.560798957050702762e-01,0.000000000000000000e+00,0.000000000000000000e+00,1.825912179204859953e+01,2.578864821647215422e+00,-1.695938599578309947e-01,0.000000000000000000e+00,0.000000000000000000e+00,0.000000000000000000e+00,2.166941002565015850e+01,-7.223761774933105784e+00
7.734374999999979981e-03,0.000000000000000000e+00,0.000000000000000000e+00,1.570224591952830429e-01,0.000000000000000000e+00,0.000000000000000000e+00,1.942138727416148924e+01,2.711756844342366524e+00,-2.500633533700061251e-01,0.000000000000000000e+00,0.000000000000000000e+00,0.000000000000000000e+00,2.181144760095680724e+01,-7.270849166972936928e+00
7.784374999999979679e-03,0.000000000000000000e+00,0.000000000000000000e+00,1.579919073868694956e-01,0.000000000000000000e+00,0.000000000000000000e+00,1.937832969785151960e+01,2.789160572870752919e+00,-2.939936776056260026e-01,0.000000000000000000e+00,0.000000000000000000e+00,0.000000000000000000e+00,2.195144657250097353e+01,-7.317930099298820323e+00
7.834374999999980244e-03,0.000000000000000000e+00,0.000000000000000000e+00,1.589639938833196098e-01,0.000000000000000000e+00,0.000000000000000000e+00,1.948855000329987419e+01,2.789533690712671099e+00,-2.858865701306220752e-01,0.000000000000000000e+00,0.000000000000000000e+00,0.000000000000000000e+00,2.209340798772351988e+01,-7.365082778058074986e+00
7.884374999999979941e-03,0.000000000000000000e+00,0.000000000000000000e+00,1.599362221875777479e-01,0.000000000000000000e+00,0.000000000000000000e+00,1.941352679551830818e+01,2.766609469321332337e+00,-2.632695841443695173e-01,0.000000000000000000e+00,0.000000000000000000e+00,0.000000000000000000e+00,2.223348827337225586e+01,-7.412103226954098290e+00
7.934374999999979639e-03,0.000000000000000000e+00,0.000000000000000000e+00,1.609148726582460553e-01,0.000000000000000000e+00,0.000000000000000000e+00,1.972124645038359247e+01,2.745351698799348483e+00,-2.513870596352378861e-01,0.000000000000000000e+00,0.000000000000000000e+00,0.000000000000000000e+00,2.237536501287353019e+01,-7.459040192839849759e+00
7.984374999999979336e-03,0.000000000000000000e+00,0.000000000000000000e+00,1.619029822660226492e-01,0.000000000000000000e+00,0.000000000000000000e+00,1.981235289177865155e+01,2.885030352325403946e+00,-1.558553201749723893e-01,0.000000000000000000e+00,0.000000000000000000e+00,0.000000000000000000e+00,2.251553185039590588e+01,-7.505939793847797858e+00
8.034374999999979033e-03,0.000000000000000000e+00,0.000000000000000000e+00,1.628794370944412762e-01,0.000000000000000000e+00,0.000000000000000000e+00,1.924230183716283094e+01,2.861881445543982938e+00,-1.572743774698781849e-01,0.000000000000000000e+00,0.000000000000000000e+00,0.000000000000000000e+00,2.265732138385920535e+01,-7.552928817244406012e+00
8.134374999999978428e-03,0.000000000000000000e+00,0.000000000000000000e+00,1.648058593460330068e-01,0.000000000000000000e+00,0.000000000000000000e+00,1.928578103073859040e+01,2.665286047480278864e+00,-2.094007281169167622e-01,0.000000000000000000e+00,0.000000000000000000e+00,0.000000000000000000e+00,2.293859463490422002e+01,-7.646968207132279538e+00
8.159374999999979144e-03,0.000000000000000000e+00,0.000000000000000000e+00,1.652995642671189203e-01,0.000000000000000000e+00,0.000000000000000000e+00,2.063907768407556276e+01,2.645640380339826514e+00,-2.452777000234455662e-01,0.000000000000000000e+00,0.000000000000000000e+00,0.000000000000000000e+00,2.300972534665040925e+01,-7.670278099144391959e+00
8.184374999999979861e-03,0.000000000000000000e+00,0.000000000000000000e+00,1.658123550421058412e-01,0.000000000000000000e+00,0.000000000000000000e+00,2.008171529476261696e+01,2.630244023015560373e+00,-2.654946389332176193e-01,0.000000000000000000e+00,0.000000000000000000e+00,0.000000000000000000e+00,2.307969709675989378e+01,-7.694051420160804788e+00
8.234374999999981293e-03,0.000000000000000000e+00,0.000000000000000000e+00,1.668162765372835366e-01,0.000000000000000000e+00,0.000000000000000000e+00,1.993689739741763489e+01,2.633938885351661430e+00,-2.983464761011308530e-01,0.000000000000000000e+00,0.000000000000000000e+00,0.000000000000000000e+00,2.322077300053986804e+01,-7.741072347674244902e+00
8.284374999999982725e-03,0.000000000000000000e+00,0.000000000000000000e+00,1.678335090936094454e-01,0.000000000000000000e+00,0.000000000000000000e+00,1.996931106039001946e+01,2.637590257428360729e+00,-2.987672103318638195e-01,0.000000000000000000e+00,0.000000000000000000e+00,0.000000000000000000e+00,2.336182873943729632e+01,-7.788007506829466742e+00
8.334374999999984157e-03,0.000000000000000000e+00,0.000000000000000000e+00,1.688708085849200402e-01,0.000000000000000000e+00,0.000000000000000000e+00,2.046410014074550077e+01,2.647600571113488677e+00,-3.023486949041689908e-01,0.000000000000000000e+00,0.000000000000000000e+00,0.000000000000000000e+00,2.350286923598747535e+01,-7.834953725716809814e+00
8.384374999999985589e-03,0.000000000000000000e+00,0.000000000000000000e+00,1.699151515987755712e-01,0.000000000000000000e+00,0.000000000000000000e+00,2.026709670018520271e+01,2.652715312931332114e+00,-2.871732499432964603e-01,0.000000000000000000e+00,0.000000000000000000e+00,0.000000000000000000e+00,2.364389827010346679e+01,-7.881942742362750387e+00
8.434374999999985287e-03,0.000000000000000000e+00,0.000000000000000000e+00,1.709643288009308482e-01,0.000000000000000000e+00,0.000000000000000000e+00,2.168368295724974359e+01,2.652167810554697969e+00,-3.013618621289725907e-01,0.000000000000000000e+00,0.000000000000000000e+00,0.000000000000000000e+00,2.378495462250733894e+01,-7.928929044750908872e+00
8.484374999999986719e-03,0.000000000000000000e+00,0.000000000000000000e+00,1.720084829162889517e-01,0.000000000000000000e+00,0.000000000000000000e+00,2.099775967695291001e+01,2.670950037508677877e+00,-3.144477571173276420e-01,0.000000000000000000e+00,0.000000000000000000e+00,0.000000000000000000e+00,2.392600069393007800e+01,-7.975907321654808868e+00
8.534374999999988151e-03,0.000000000000000000e+00,0.000000000000000000e+00,1.730340000965746583e-01,0.000000000000000000e+00,0.000000000000000000e+00,2.052883105030072386e+01,2.694485489341362783e+00,-3.121348866680859757e-01,0.000000000000000000e+00,0.000000000000000000e+00,0.000000000000000000e+00,2.406701305239981892e+01,-8.022850584698618448e+00
8.584374999999989583e-03,0.000000000000000000e+00,0.000000000000000000e+00,1.740523216450133026e-01,0.000000000000000000e+00,0.000000000000000000e+00,2.030615412882223936e+01,2.690797035159412598e+00,-2.973291513471092440e-01,0.000000000000000000e+00,0.000000000000000000e+00,0.000000000000000000e+00,2.420786469546737862e+01,-8.069883348671503143e+00
8.634374999999991016e-03,0.000000000000000000e+00,0.000000000000000000e+00,1.750748797252217048e-01,0.000000000000000000e+00,0.000000000000000000e+00,2.046142947732090533e+01,2.678815449368812551e+00,-2.892455480691734082e-01,0.000000000000000000e+00,0.000000000000000000e+00,0.000000000000000000e+00,2.434886994116774517e+01,-8.117007493764319292e+00
8.684374999999992448e-03,0.000000000000000000e+00,0.000000000000000000e+00,1.761047851730030978e-01,0.000000000000000000e+00,0.000000000000000000e+00,2.061100923207131785e+01,2.668647219611176347e+00,-2.885922801089155221e-01,0.000000000000000000e+00,0.000000000000000000e+00,0.000000000000000000e+00,2.448987582174887478e+01,-8.164088560315123644e+00
8.734374999999993880e-03,0.000000000000000000e+00,0.000000000000000000e+00,1.771394613140735430e-01,0.000000000000000000e+00,0.000000000000000000e+00,2.066089632597848080e+01,2.666745051872535743e+00,-2.943517124570625976e-01,0.000000000000000000e+00,0.000000000000000000e+00,0.000000000000000000e+00,2.463088190658079668e+01,-8.211067879619598386e+00
8.784374999999995312e-03,0.000000000000000000e+00,0.000000000000000000e+00,1.781741241632833483e-01,0.000000000000000000e+00,0.000000000000000000e+00,2.062852670069586836e+01,2.671154624007972878e+00,-3.023114375175095514e-01,0.000000000000000000e+00,0.000000000000000000e+00,0.000000000000000000e+00,2.477188790576408550e+01,-8.257993336743306045e+00
8.859374999999995726e-03,0.000000000000000000e+00,0.000000000000000000e+00,1.797209687353439889e-01,0.000000000000000000e+00,0.000000000000000000e+00,2.053889261285673840e+01,2.669237410847766334e+00,-3.078188418061219567e-01,0.000000000000000000e+00,0.000000000000000000e+00,0.000000000000000000e+00,2.498339621933134325e+01,-8.328443334637146478e+00
8.909374999999995423e-03,0.000000000000000000e+00,0.000000000000000000e+00,1.807481644392208431e-01,0.000000000000000000e+00,0.000000000000000000e+00,2.054485992065328048e+01,2.679392013193905964e+00,-3.130828834235138691e-01,0.000000000000000000e+00,0.000000000000000000e+00,0.000000000000000000e+00,2.512447398758330763e+01,-8.375469768107315360e+00
8.959374999999995121e-03,0.000000000000000000e+00,0.000000000000000000e+00,1.817723511308386164e-01,0.000000000000000000e+00,0.000000000000000000e+00,2.042616828673396867e+01,2.679164318362267760e+00,-3.128277295848499451e-01,0.000000000000000000e+00,0.000000000000000000e+00,0.000000000000000000e+00,2.526540525969159390e+01,-8.422508786252111079e+00
9.009374999999994818e-03,0.000000000000000000e+00,0.000000000000000000e+00,1.827939918203592140e-01,0.000000000000000000e+00,0.000000000000000000e+00,2.043625365062293398e+01,2.678284542319705697e+00,-3.180749506456883591e-01,0.000000000000000000e+00,0.000000000000000000e+00,0.000000000000000000e+00,2.540646597761244152e+01,-8.469530570006350345e+00
9.059374999999994515e-03,0.000000000000000000e+00,0.000000000000000000e+00,1.838112147872372759e-01,0.000000000000000000e+00,0.000000000000000000e+00,2.025590755686577893e+01,2.681879339746066293e+00,-3.185345871058198886e-01,0.000000000000000000e+00,0.000000000000000000e+00,0.000000000000000000e+00,2.554741235494685014e+01,-8.516523589872566191e+00
9.109374999999994213e-03,0.000000000000000000e+00,0.000000000000000000e+00,1.848250229463108685e-01,0.000000000000000000e+00,0.000000000000000000e+00,2.029302012863547944e+01,2.682679617953422913e+00,-3.191759666897832637e-01,0.000000000000000000e+00,0.000000000000000000e+00,0.000000000000000000e+00,2.568845969422957864e+01,-8.563503734658992173e+00
9.134374999999994929e-03,0.000000000000000000e+00,0.000000000000000000e+00,1.853118665650637376e-01,0.000000000000000000e+00,0.000000000000000000e+00,2.032947724623953079e+01,2.690020423396696003e+00,-3.306600199855302402e-01,0.000000000000000000e+00,0.000000000000000000e+00,0.000000000000000000e+00,2.575875987782432119e+01,-8.586263150820247603e+00
9.184374999999996361e-03,0.000000000000000000e+00,0.000000000000000000e+00,1.863330461722642051e-01,0.000000000000000000e+00,0.000000000000000000e+00,2.012049261581957182e+01,2.670773455407133401e+00,-3.535593218251021908e-01,0.000000000000000000e+00,0.000000000000000000e+00,0.000000000000000000e+00,2.589953823730127525e+01,-8.634335341955583942e+00
9.234374999999997793e-03,0.000000000000000000e+00,0.000000000000000000e+00,1.873363083306706089e-01,0.000000000000000000e+00,0.000000000000000000e+00,1.978637523306523960e+01,2.641981856868367728e+00,-3.658545964855262622e-01,0.000000000000000000e+00,0.000000000000000000e+00,0.000000000000000000e+00,2.604040723233866572e+01,-8.681382521137466668e+00
9.284374999999999226e-03,0.000000000000000000e+00,0.000000000000000000e+00,1.883325069663530915e-01,0.000000000000000000e+00,0.000000000000000000e+00,1.972225031449840316e+01,2.617328894544708184e+00,-3.698545355070959606e-01,0.000000000000000000e+00,0.000000000000000000e+00,0.000000000000000000e+00,2.618134042264173900e+01,-8.728012610183894182e+00
9.334375000000000658e-03,0.000000000000000000e+00,0.000000000000000000e+00,1.893306898263666938e-01,0.000000000000000000e+00,0.000000000000000000e+00,1.976382095183696208e+01,2.614414295832871549e+00,-3.733567818256237070e-01,0.000000000000000000e+00,0.000000000000000000e+00,0.000000000000000000e+00,2.632231814329322361e+01,-8.774792653333824077e+00
9.409375000000001071e-03,0.000000000000000000e+00,0.000000000000000000e+00,1.908339744860471643e-01,0.000000000000000000e+00,0.000000000000000000e+00,1.988943308116422770e+01,2.635062763706878197e+00,-3.739172627175663677e-01,0.000000000000000000e+00,0.000000000000000000e+00,0.000000000000000000e+00,2.653382967355082300e+01,-8.845543667350863615e+00
9.459375000000000769e-03,0.000000000000000000e+00,0.000000000000000000e+00,1.918374114873925562e-01,0.000000000000000000e+00,0.000000000000000000e+00,2.018523787161315752e+01,2.654414552635542268e+00,-3.689832474158115661e-01,0.000000000000000000e+00,0.000000000000000000e+00,0.000000000000000000e+00,2.667603060515185831e+01,-8.892714489209495810e+00
9.484375000000001485e-03,0.000000000000000000e+00,0.000000000000000000e+00,1.923176718697730270e-01,0.000000000000000000e+00,0.000000000000000000e+00,1.987104682579520087e+01,2.663537004457954716e+00,-3.815424122391682937e-01,0.000000000000000000e+00,0.000000000000000000e+00,0.000000000000000000e+00,2.674519162722984333e+01,-8.915480455883082911e+00
9.534375000000002917e-03,0.000000000000000000e+00,0.000000000000000000e+00,1.933267016024399765e-01,0.000000000000000000e+00,0.000000000000000000e+00,1.971830645455143838e+01,2.677743447165232826e+00,-3.613161607261308750e-01,0.000000000000000000e+00,0.000000000000000000e+00,0.000000000000000000e+00,2.688598977647393795e+01,-8.963086267368934656e+00
9.584375000000004349e-03,0.000000000000000000e+00,0.000000000000000000e+00,1.943307339280715695e-01,0.000000000000000000e+00,0.000000000000000000e+00,1.966034252224723744e+01,2.666169203452696479e+00,-3.513346021791108886e-01,0.000000000000000000e+00,0.000000000000000000e+00,0.000000000000000000e+00,2.702689155501172280e+01,-9.010139947809424399e+00
9.634375000000005781e-03,0.000000000000000000e+00,0.000000000000000000e+00,1.953362637951297220e-01,0.000000000000000000e+00,0.000000000000000000e+00,1.970157237884150803e+01,2.653179298315860191e+00,-3.528041010127535015e-01,0.000000000000000000e+00,0.000000000000000000e+00,0.000000000000000000e+00,2.716786487052564070e+01,-9.056990549263540302e+00
9.684375000000007214e-03,0.000000000000000000e+00,0.000000000000000000e+00,1.963467759659221490e-01,0.000000000000000000e+00,0.000000000000000000e+00,1.975662331793527571e+01,2.650603785550217140e+00,-3.588663523881105433e-01,0.000000000000000000e+00,0.000000000000000000e+00,0.000000000000000000e+00,2.730888608475821755e+01,-9.103903654871917439e+00
9.759375000000007627e-03,0.000000000000000000e+00,0.000000000000000000e+00,1.978924435653101332e-01,0.000000000000000000e+00,0.000000000000000000e+00,2.087943255774121809e+01,2.649342211917556700e+00,-3.618568485548281366e-01,0.000000000000000000e+00,0.000000000000000000e+00,0.000000000000000000e+00,2.752046171396180796e+01,-9.174462944893718941e+00
9.809375000000007325e-03,0.000000000000000000e+00,0.000000000000000000e+00,1.989238917920782834e-01,0.000000000000000000e+00,0.000000000000000000e+00,2.031474344701301504e+01,2.657656405374615893e+00,-3.731174886384520106e-01,0.000000000000000000e+00,0.000000000000000000e+00,0.000000000000000000e+00,2.766336088079062705e+01,-9.221613774275530417e+00
9.859375000000007022e-03,0.000000000000000000e+00,0.000000000000000000e+00,1.999427707102298390e-01,0.000000000000000000e+00,0.000000000000000000e+00,2.048327093183532455e+01,2.669578064388581584e+00,-3.753149432090345239e-01,0.000000000000000000e+00,0.000000000000000000e+00,0.000000000000000000e+00,2.780256580126660282e+01,-9.268569494290190391e+00
9.909375000000006720e-03,0.000000000000000000e+00,0.000000000000000000e+00,2.009718037773861044e-01,0.000000000000000000e+00,0.000000000000000000e+00,2.064690596126676070e+01,2.686745856784386266e+00,-3.850254176211860280e-01,0.000000000000000000e+00,0.000000000000000000e+00,0.000000000000000000e+00,2.794525861927886012e+01,-9.315584725076961448e+00
9.959375000000006417e-03,0.000000000000000000e+00,0.000000000000000000e+00,2.019970141469032698e-01,0.000000000000000000e+00,0.000000000000000000e+00,2.038619068956207414e+01,2.678619809269719543e+00,-3.790082899476236999e-01,0.000000000000000000e+00,0.000000000000000000e+00,0.000000000000000000e+00,2.808466556127126879e+01,-9.362549343453512307e+00
1.000937500000000611e-02,0.000000000000000000e+00,0.000000000000000000e+00,2.030227024140613123e-01,0.000000000000000000e+00,0.000000000000000000e+00,2.062101852609295349e+01,2.684568353364483517e+00,-3.873726764776668219e-01,0.000000000000000000e+00,0.000000000000000000e+00,0.000000000000000000e+00,2.822716188309511054e+01,-9.409570068561613709e+00
1.005937500000000581e-02,0.000000000000000000e+00,0.000000000000000000e+00,2.040455464019374776e-01,0.000000000000000000e+00,0.000000000000000000e+00,2.031013131712056463e+01,2.690009929778106823e+00,-3.696680837598363412e-01,0.000000000000000000e+00,0.000000000000000000e+00,0.000000000000000000e+00,2.836675888079763297e+01,-9.456559887048232582e+00
1.010937500000000551e-02,0.000000000000000000e+00,0.000000000000000000e+00,2.050674714697455769e-01,0.000000000000000000e+00,0.000000000000000000e+00,2.055158112297127460e+01,2.752705224966995434e+00,-3.233911345379315017e-01,0.000000000000000000e+00,0.000000000000000000e+00,0.000000000000000000e+00,2.850907226425690411e+01,-9.503579926833232605e+00
1.015937500000000521e-02,0.000000000000000000e+00,0.000000000000000000e+00,2.060854176771542423e-01,0.000000000000000000e+00,0.000000000000000000e+00,2.018031900734993656e+01,2.761900556141593466e+00,-3.183276547063281225e-01,0.000000000000000000e+00,0.000000000000000000e+00,0.000000000000000000e+00,2.864884460589161463e+01,-9.550575099848767735e+00
1.020937500000000490e-02,0.000000000000000000e+00,0.000000000000000000e+00,2.071013414149854015e-01,0.000000000000000000e+00,0.000000000000000000e+00,2.044337597076132695e+01,2.764998249730942881e+00,-3.296615183959391016e-01,0.000000000000000000e+00,0.000000000000000000e+00,0.000000000000000000e+00,2.879099055034658505e+01,-9.597584032086539096e+00
1.030937500000000430e-02,0.000000000000000000e+00,0.000000000000000000e+00,2.091246445196233705e-01,0.000000000000000000e+00,0.000000000000000000e+00,2.003553581796303718e+01,2.731796860484657863e+00,-3.605947147104346384e-01,0.000000000000000000e+00,0.000000000000000000e+00,0.000000000000000000e+00,2.907195729230223336e+01,-9.691587668111404597e+00
1.033437500000000502e-02,0.000000000000000000e+00,0.000000000000000000e+00,2.096255751616417640e-01,0.000000000000000000e+00,0.000000000000000000e+00,2.048239223997776293e+01,2.730303314454090913e+00,-3.842557013642936559e-01,0.000000000000000000e+00,0.000000000000000000e+00,0.000000000000000000e+00,2.914335206079233487e+01,-9.714886242714477760e+00
1.035937500000000573e-02,0.000000000000000000e+00,0.000000000000000000e+00,2.101321899293353002e-01,0.000000000000000000e+00,0.000000000000000000e+00,1.972999870704215652e+01,2.722692099966969703e+00,-3.769309727370153129e-01,0.000000000000000000e+00,0.000000000000000000e+00,0.000000000000000000e+00,2.921308025881336690e+01,-9.738647399768423085e+00
1.040937500000000716e-02,0.000000000000000000e+00,0.000000000000000000e+00,2.111382823922236252e-01,0.000000000000000000e+00,0.000000000000000000e+00,1.950526526526232374e+01,2.698307387302152360e+00,-3.736450407812295094e-01,0.000000000000000000e+00,0.000000000000000000e+00,0.000000000000000000e+00,2.935417383354833021e+01,-9.785692946624648059e+00
1.045937500000000860e-02,0.000000000000000000e+00,0.000000000000000000e+00,2.121430497948486038e-01,0.000000000000000000e+00,0.000000000000000000e+00,1.940957961409003829e+01,2.678865196219544220e+00,-3.846261058910331876e-01,0.000000000000000000e+00,0.000000000000000000e+00,0.000000000000000000e+00,2.949524474628704240e+01,-9.832655137748778529e+00
1.050937500000001003e-02,0.000000000000000000e+00,0.000000000000000000e+00,2.131479999686577975e-01,0.000000000000000000e+00,0.000000000000000000e+00,1.940019913283540731e+01,2.666211481764091840e+00,-3.997403122375117190e-01,0.000000000000000000e+00,0.000000000000000000e+00,0.000000000000000000e+00,2.963629823054733592e+01,-9.879585996005195270e+00
1.055937500000001146e-02,0.000000000000000000e+00,0.000000000000000000e+00,2.141543386514212777e-01,0.000000000000000000e+00,0.000000000000000000e+00,1.948658061927961782e+01,2.654517498017430199e+00,-4.087758899961398407e-01,0.000000000000000000e+00,0.000000000000000000e+00,0.000000000000000000e+00,2.977733834919439460e+01,-9.926540526046240487e+00
1.060937500000001116e-02,0.000000000000000000e+00,0.000000000000000000e+00,2.151623491224895490e-01,0.000000000000000000e+00,0.000000000000000000e+00,2.080775933085406493e+01,2.660998061997140951e+00,-4.212955945615448616e-01,0.000000000000000000e+00,0.000000000000000000e+00,0.000000000000000000e+00,2.991850502469034012e+01,-9.973510273210681731e+00
1.065937500000001259e-02,0.000000000000000000e+00,0.000000000000000000e+00,2.161740108361965562e-01,0.000000000000000000e+00,0.000000000000000000e+00,2.101265899700829110e+01,2.680915054466556757e+00,-4.349602466615377638e-01,0.000000000000000000e+00,0.000000000000000000e+00,0.000000000000000000e+00,3.005973870578245055e+01,-1.002099472364476718e+01
1.070937500000001402e-02,0.000000000000000000e+00,0.000000000000000000e+00,2.171873174246036486e-01,0.000000000000000000e+00,0.000000000000000000e+00,2.064630165234111203e+01,2.690141299625295357e+00,-4.237098249129703786e-01,0.000000000000000000e+00,0.000000000000000000e+00,0.000000000000000000e+00,3.020088115041905397e+01,-1.006827980342220918e+01
1.075937500000001545e-02,0.000000000000000000e+00,0.000000000000000000e+00,2.181939762485501366e-01,0.000000000000000000e+00,0.000000000000000000e+00,2.064220320130912967e+01,2.675926014609815162e+00,-4.209278243553246091e-01,0.000000000000000000e+00,0.000000000000000000e+00,0.000000000000000000e+00,3.034195859256666239e+01,-1.011515728500114797e+01
1.080937500000001689e-02,0.000000000000000000e+00,0.000000000000000000e+00,2.192007819231084620e-01,0.000000000000000000e+00,0.000000000000000000e+00,2.069832278521518987e+01,2.656514765640366260e+00,-4.320269138614484250e-01,0.000000000000000000e+00,0.000000000000000000e+00,0.000000000000000000e+00,3.048299059091907282e+01,-1.016163509196678660e+01
1.085937500000001832e-02,0.000000000000000000e+00,0.000000000000000000e+00,2.202137143710253819e-01,0.000000000000000000e+00,0.000000000000000000e+00,2.085449311754523194e+01,2.653551868248134493e+00,-4.409164599186616851e-01,0.000000000000000000e+00,0.000000000000000000e+00,0.000000000000000000e+00,3.062399161845370799e+01,-1.020832455276814166e+01
1.090937500000001802e-02,0.000000000000000000e+00,0.000000000000000000e+00,2.211566197535171086e-01,0.000000000000000000e+00,0.000000000000000000e+00,1.698040233480606886e+01,3.150214102497964852e+00,-9.419696605143133006e-01,0.000000000000000000e+00,0.000000000000000000e+00,0.000000000000000000e+00,3.076389593131629141e+01,-1.025547385207174855e+01
1.095937500000001771e-02,0.000000000000000000e+00,0.000000000000000000e+00,2.218910657497863148e-01,0.000000000000000000e+00,0.000000000000000000e+00,1.231491128181141015e+01,3.102981947825900644e+00,-9.250703764197676371e-01,0.000000000000000000e+00,0.000000000000000000e+00,0.000000000000000000e+00,3.090596348768404766e+01,-1.030328685193752847e+01
1.100937500000001741e-02,0.000000000000000000e+00,0.000000000000000000e+00,2.223940399758919384e-01,0.000000000000000000e+00,0.000000000000000000e+00,7.863054667447963553e+00,2.949555885367760588e+00,-7.878633496375786471e-01,0.000000000000000000e+00,0.000000000000000000e+00,0.000000000000000000e+00,3.104592939280372477e+01,-1.035079159435438356e+01
1.105937500000001711e-02,0.000000000000000000e+00,0.000000000000000000e+00,2.227739422532317437e-01,0.000000000000000000e+00,0.000000000000000000e+00,7.271658483579380494e+00,2.739485818117317173e+00,-6.291866779199473125e-01,0.000000000000000000e+00,0.000000000000000000e+00,0.000000000000000000e+00,3.118792604292864823e+01,-1.039763664932308096e+01
1.110937500000001681e-02,0.000000000000000000e+00,0.000000000000000000e+00,2.231123095396709277e-01,0.000000000000000000e+00,0.000000000000000000e+00,6.309445719681353815e+00,2.581330350745848268e+00,-5.248171917929298491e-01,0.000000000000000000e+00,0.000000000000000000e+00,0.000000000000000000e+00,3.132796968955594963e+01,-1.044395659179782143e+01
1.115937500000001650e-02,0.000000000000000000e+00,0.000000000000000000e+00,2.234889776827011787e-01,0.000000000000000000e+00,0.000000000000000000e+00,8.707447694904692170e+00,2.476560957975827648e+00,-4.582097229256740234e-01,0.000000000000000000e+00,0.000000000000000000e+00,0.000000000000000000e+00,3.146988383902678521e+01,-1.049041076383615056e+01
1.120937500000001794e-02,0.000000000000000000e+00,0.000000000000000000e+00,2.239757366673536532e-01,0.000000000000000000e+00,0.000000000000000000e+00,1.219851956859569064e+01,2.450013870421502649e+00,-4.275788846721811365e-01,0.000000000000000000e+00,0.000000000000000000e+00,0.000000000000000000e+00,3.161113575291537003e+01,-1.053745896669999738e+01
1.125937500000001937e-02,0.000000000000000000e+00,0.000000000000000000e+00,2.246103321360899407e-01,0.000000000000000000e+00,0.000000000000000000e+00,1.499425464075871695e+01,2.443540089623690292e+00,-4.126622580898453574e-01,0.000000000000000000e+00,0.000000000000000000e+00,0.000000000000000000e+00,3.175227582667992365e+01,-1.058481043779360142e+01
1.130937500000002080e-02,0.000000000000000000e+00,0.000000000000000000e+00,2.254026792811079649e-01,0.000000000000000000e+00,0.000000000000000000e+00,1.842982551621028620e+01,2.464194148321964928e+00,-4.213566858280026750e-01,0.000000000000000000e+00,0.000000000000000000e+00,0.000000000000000000e+00,3.189333746548491888e+01,-1.063186293713693509e+01
1.135937500000002223e-02,0.000000000000000000e+00,0.000000000000000000e+00,2.263668518031237697e-01,0.000000000000000000e+00,0.000000000000000000e+00,2.181003712124670102e+01,2.502848268107397356e+00,-4.412110165517089677e-01,0.000000000000000000e+00,0.000000000000000000e+00,0.000000000000000000e+00,3.203434541795372326e+01,-1.067865628505163578e+01
1.140937500000002366e-02,0.000000000000000000e+00,0.000000000000000000e+00,2.274926845192060121e-01,0.000000000000000000e+00,0.000000000000000000e+00,2.484704958250461360e+01,2.562816902898513938e+00,-4.682691958477201988e-01,0.000000000000000000e+00,0.000000000000000000e+00,0.000000000000000000e+00,3.217531785973005753e+01,-1.072545622715617419e+01
1.145937500000002336e-02,0.000000000000000000e+00,0.000000000000000000e+00,2.287536490493953523e-01,0.000000000000000000e+00,0.000000000000000000e+00,2.567090488923446401e+01,2.620215491497135840e+00,-4.861026955204290623e-01,0.000000000000000000e+00,0.000000000000000000e+00,0.000000000000000000e+00,3.231459835884886189e+01,-1.077237450342247094e+01
1.150937500000002306e-02,0.000000000000000000e+00,0.000000000000000000e+00,2.301200058590879838e-01,0.000000000000000000e+00,0.000000000000000000e+00,2.891406586296628589e+01,2.693643316582591485e+00,-5.233317481879521393e-01,0.000000000000000000e+00,0.000000000000000000e+00,0.000000000000000000e+00,3.245723486268948932e+01,-1.081959224945065046e+01
1.155937500000002276e-02,0.000000000000000000e+00,0.000000000000000000e+00,2.315467487333338625e-01,0.000000000000000000e+00,0.000000000000000000e+00,2.822486542270842591e+01,2.735922556901178471e+00,-5.400196868769563396e-01,0.000000000000000000e+00,0.000000000000000000e+00,0.000000000000000000e+00,3.259668195148931602e+01,-1.086671569928876302e+01
1.160937500000002245e-02,0.000000000000000000e+00,0.000000000000000000e+00,2.329965024135440543e-01,0.000000000000000000e+00,0.000000000000000000e+00,2.970456513421903821e+01,2.778114216320837215e+00,-5.722200903131616778e-01,0.000000000000000000e+00,0.000000000000000000e+00,0.000000000000000000e+00,3.273915162353912223e+01,-1.091385359567012259e+01
1.165937500000002215e-02,0.000000000000000000e+00,0.000000000000000000e+00,2.344279439411160737e-01,0.000000000000000000e+00,0.000000000000000000e+00,2.761433453962353823e+01,2.789857360086630766e+00,-5.788208722690103558e-01,0.000000000000000000e+00,0.000000000000000000e+00,0.000000000000000000e+00,3.287876407192419492e+01,-1.096085034189156815e+01
1.170937500000002185e-02,0.000000000000000000e+00,0.000000000000000000e+00,2.358108835451191709e-01,0.000000000000000000e+00,0.000000000000000000e+00,2.764854767544403558e+01,2.801970147150302459e+00,-5.960859566178645652e-01,0.000000000000000000e+00,0.000000000000000000e+00,0.000000000000000000e+00,3.302107123047041881e+01,-1.100786434526261992e+01
1.175937500000002155e-02,0.000000000000000000e+00,0.000000000000000000e+00,2.371200347663844632e-01,0.000000000000000000e+00,0.000000000000000000e+00,2.477121524795102658e+01,2.787871970817370482e+00,-5.956042790707962720e-01,0.000000000000000000e+00,0.000000000000000000e+00,0.000000000000000000e+00,3.316084226189334316e+01,-1.105485337687882108e+01
1.180937500000002124e-02,0.000000000000000000e+00,0.000000000000000000e+00,2.383432993276948797e-01,0.000000000000000000e+00,0.000000000000000000e+00,2.410970042614625442e+01,2.778162976170860610e+00,-6.008521335649203987e-01,0.000000000000000000e+00,0.000000000000000000e+00,0.000000000000000000e+00,3.330299560691020133e+01,-1.110188967751273204e+01
1.185937500000002094e-02,0.000000000000000000e+00,0.000000000000000000e+00,2.394741008048584252e-01,0.000000000000000000e+00,0.000000000000000000e+00,2.116938331396071149e+01,2.745552842100480451e+00,-5.884086748258088306e-01,0.000000000000000000e+00,0.000000000000000000e+00,0.000000000000000000e+00,3.344291505042625090e+01,-1.114890256821458259e+01
1.190937500000002064e-02,0.000000000000000000e+00,0.000000000000000000e+00,2.404526756892861883e-01,0.000000000000000000e+00,0.000000000000000000e+00,1.794079161932497612e+01,2.668008401388304751e+00,-5.249635723591696834e-01,0.000000000000000000e+00,0.000000000000000000e+00,0.000000000000000000e+00,3.358492584263373715e+01,-1.119585064302165200e+01
1.195937500000002034e-02,0.000000000000000000e+00,0.000000000000000000e+00,2.411295400096757080e-01,0.000000000000000000e+00,0.000000000000000000e+00,1.064527322923915698e+01,2.562606855890562141e+00,-4.323703807713774605e-01,0.000000000000000000e+00,0.000000000000000000e+00,0.000000000000000000e+00,3.372468564353679454e+01,-1.124144502248384114e+01
1.200937500000002003e-02,0.000000000000000000e+00,0.000000000000000000e+00,2.415803608663121549e-01,0.000000000000000000e+00,0.000000000000000000e+00,6.274301059025104266e+00,2.495036743578220140e+00,-3.511551580964691888e-01,0.000000000000000000e+00,0.000000000000000000e+00,0.000000000000000000e+00,3.386739528409790267e+01,-1.129038592510806360e+01
1.205937500000001973e-02,0.000000000000000000e+00,0.000000000000000000e+00,2.417969239594757735e-01,0.000000000000000000e+00,0.000000000000000000e+00,3.191701823494342172e+00,2.433566079728066711e+00,-3.573527383735101703e-01,0.000000000000000000e+00,0.000000000000000000e+00,0.000000000000000000e+00,3.400632249235947313e+01,-1.133632675208666107e+01
1.210937500000001943e-02,0.000000000000000000e+00,0.000000000000000000e+00,2.419984281203017007e-01,0.000000000000000000e+00,0.000000000000000000e+00,4.264235115591442415e+00,2.376603297696148420e+00,-3.646716686545868336e-01,0.000000000000000000e+00,0.000000000000000000e+00,0.000000000000000000e+00,3.414966870863433712e+01,-1.138381427724769956e+01
1.215937500000001913e-02,0.000000000000000000e+00,0.000000000000000000e+00,2.422305883608518728e-01,0.000000000000000000e+00,0.000000000000000000e+00,5.461019634900869946e+00,2.357692448376021765e+00,-3.777938743404447575e-01,0.000000000000000000e+00,0.000000000000000000e+00,0.000000000000000000e+00,3.428812448064522300e+01,-1.142992482286089739e+01
1.220937500000001882e-02,0.000000000000000000e+00,0.000000000000000000e+00,2.426338223444976239e-01,0.000000000000000000e+00,0.000000000000000000e+00,1.033160163908737772e+01,2.379298658156592250e+00,-4.092844595413449027e-01,0.000000000000000000e+00,0.000000000000000000e+00,0.000000000000000000e+00,3.443180365584265701e+01,-1.147724025978539331e+01
1.225937500000001852e-02,0.000000000000000000e+00,0.000000000000000000e+00,2.432067832722980272e-01,0.000000000000000000e+00,0.000000000000000000e+00,1.284302373526132257e+01,2.414463506437436902e+00,-4.281385701042969005e-01,0.000000000000000000e+00,0.000000000000000000e+00,0.000000000000000000e+00,3.457004196515838146e+01,-1.152395626447396459e+01
1.230937500000001995e-02,0.000000000000000000e+00,0.000000000000000000e+00,2.440087697088818564e-01,0.000000000000000000e+00,0.000000000000000000e+00,1.756640831046710360e+01,2.495156718449349054e+00,-4.472470535722383178e-01,0.000000000000000000e+00,0.000000000000000000e+00,0.000000000000000000e+00,3.471140324209928707e+01,-1.157133879589105163e+01
1.235937500000002139e-02,0.000000000000000000e+00,0.000000000000000000e+00,2.450326764111721567e-01,0.000000000000000000e+00,0.000000000000000000e+00,2.142117791675716987e+01,2.544675391882968540e+00,-4.850060318030943729e-01,0.000000000000000000e+00,0.000000000000000000e+00,0.000000000000000000e+00,3.485267761261177810e+01,-1.161866391110297769e+01
1.240937500000002282e-02,0.000000000000000000e+00,0.000000000000000000e+00,2.462417224739848198e-01,0.000000000000000000e+00,0.000000000000000000e+00,2.500858060108713588e+01,2.577219075951868277e+00,-5.195241535678649658e-01,0.000000000000000000e+00,0.000000000000000000e+00,0.000000000000000000e+00,3.499388505903779389e+01,-1.166556860435759013e+01
1.245937500000002425e-02,0.000000000000000000e+00,0.000000000000000000e+00,2.476053317378157370e-01,0.000000000000000000e+00,0.000000000000000000e+00,2.787267848890882149e+01,2.623038317727163893e+00,-5.602702300146930048e-01,0.000000000000000000e+00,0.000000000000000000e+00,0.000000000000000000e+00,3.513504110775881628e+01,-1.171230632583183073e+01
1.250937500000002568e-02,0.000000000000000000e+00,0.000000000000000000e+00,2.490771536879757553e-01,0.000000000000000000e+00,0.000000000000000000e+00,2.966702229136683755e+01,2.685723337109263031e+00,-5.991894650455528160e-01,0.000000000000000000e+00,0.000000000000000000e+00,0.000000000000000000e+00,3.527615780108077814e+01,-1.175919910631000853e+01
1.255937500000002711e-02,0.000000000000000000e+00,0.000000000000000000e+00,2.505977645580904634e-01,0.000000000000000000e+00,0.000000000000000000e+00,3.034441961681425681e+01,2.760913290499476425e+00,-6.263421434673273058e-01,0.000000000000000000e+00,0.000000000000000000e+00,0.000000000000000000e+00,3.541754696231313204e+01,-1.180648823423432070e+01
1.260937500000002855e-02,0.000000000000000000e+00,0.000000000000000000e+00,2.521190906442944413e-01,0.000000000000000000e+00,0.000000000000000000e+00,2.990074670818426483e+01,2.808255774037611729e+00,-6.497947083213955199e-01,0.000000000000000000e+00,0.000000000000000000e+00,0.000000000000000000e+00,3.555879833940812773e+01,-1.185386527806570101e+01
1.265937500000002998e-02,0.000000000000000000e+00,0.000000000000000000e+00,2.535855603982128392e-01,0.000000000000000000e+00,0.000000000000000000e+00,2.874062057352531596e+01,2.802836973909528240e+00,-6.666889936106956682e-01,0.000000000000000000e+00,0.000000000000000000e+00,0.000000000000000000e+00,3.569995024161347885e+01,-1.190090681456800503e+01
1.270937500000003141e-02,0.000000000000000000e+00,0.000000000000000000e+00,2.549670075850251072e-01,0.000000000000000000e+00,0.000000000000000000e+00,2.706835386399061605e+01,2.785193649752529144e+00,-6.793564788978413427e-01,0.000000000000000000e+00,0.000000000000000000e+00,0.000000000000000000e+00,3.584103139467479338e+01,-1.194770966281003410e+01
1.275937500000003284e-02,0.000000000000000000e+00,0.000000000000000000e+00,2.562454628316963023e-01,0.000000000000000000e+00,0.000000000000000000e+00,2.507012015660637516e+01,2.768546521378212333e+00,-6.846973642496488877e-01,0.000000000000000000e+00,0.000000000000000000e+00,0.000000000000000000e+00,3.598206319960797117e+01,-1.199454400071823201e+01
1.283437500000003326e-02,0.000000000000000000e+00,0.000000000000000000e+00,2.579590485261987198e-01,0.000000000000000000e+00,0.000000000000000000e+00,2.188506264663504552e+01,2.736259372278305957e+00,-6.779826890588456223e-01,0.000000000000000000e+00,0.000000000000000000e+00,0.000000000000000000e+00,3.619356037936805137e+01,-1.206507834786705047e+01
1.288437500000003295e-02,0.000000000000000000e+00,0.000000000000000000e+00,2.589731716821553897e-01,0.000000000000000000e+00,0.000000000000000000e+00,1.876119562120731388e+01,2.698026951029469434e+00,-6.600620347818424438e-01,0.000000000000000000e+00,0.000000000000000000e+00,0.000000000000000000e+00,3.633332517522153182e+01,-1.211208674420057996e+01
1.293437500000003265e-02,0.000000000000000000e+00,0.000000000000000000e+00,2.599101554758349586e-01,0.000000000000000000e+00,0.000000000000000000e+00,1.864461662109019002e+01,2.669416217108524503e+00,-6.569242735959096580e-01,0.000000000000000000e+00,0.000000000000000000e+00,0.000000000000000000e+00,3.647553515231414423e+01,-1.215913219586191651e+01
1.298437500000003235e-02,0.000000000000000000e+00,0.000000000000000000e+00,2.607894644037039855e-01,0.000000000000000000e+00,0.000000000000000000e+00,1.659049431209775349e+01,2.628498788202600522e+00,-6.390389890820740160e-01,0.000000000000000000e+00,0.000000000000000000e+00,0.000000000000000000e+00,3.661535770890366592e+01,-1.220604885984731069e+01
1.303437500000003205e-02,0.000000000000000000e+00,0.000000000000000000e+00,2.616434559935511550e-01,0.000000000000000000e+00,0.000000000000000000e+00,1.750930557855500425e+01,2.606622867656215536e+00,-6.380491617214063549e-01,0.000000000000000000e+00,0.000000000000000000e+00,0.000000000000000000e+00,3.675749702559770782e+01,-1.225299236683525095e+01
1.308437500000003174e-02,0.000000000000000000e+00,0.000000000000000000e+00,2.624956888333247473e-01,0.000000000000000000e+00,0.000000000000000000e+00,1.663213844917441264e+01,2.581664678787021661e+00,-6.261248601410875914e-01,0.000000000000000000e+00,0.000000000000000000e+00,0.000000000000000000e+00,3.689739998471204530e+01,-1.229991545709376943e+01
1.310937500000003246e-02,0.000000000000000000e+00,0.000000000000000000e+00,2.629137219526677671e-01,0.000000000000000000e+00,0.000000000000000000e+00,1.820815272352790970e+01,2.590040395838673959e+00,-6.467925195226608137e-01,0.000000000000000000e+00,0.000000000000000000e+00,0.000000000000000000e+00,3.696882421427942234e+01,-1.232263140763613762e+01
1.315937500000003389e-02,0.000000000000000000e+00,0.000000000000000000e+00,2.638319098722129996e-01,0.000000000000000000e+00,0.000000000000000000e+00,1.899051298779703600e+01,2.621628809125226667e+00,-6.461358414413338469e-01,0.000000000000000000e+00,0.000000000000000000e+00,0.000000000000000000e+00,3.710959351840551079e+01,-1.237085683447632434e+01
1.320937500000003532e-02,0.000000000000000000e+00,0.000000000000000000e+00,2.647882428924615006e-01,0.000000000000000000e+00,0.000000000000000000e+00,1.977884469968645220e+01,2.586320347553496379e+00,-6.160681930348566038e-01,0.000000000000000000e+00,0.000000000000000000e+00,0.000000000000000000e+00,3.725043652657089410e+01,-1.241804206557344692e+01
1.325937500000003676e-02,0.000000000000000000e+00,0.000000000000000000e+00,2.657914529769981327e-01,0.000000000000000000e+00,0.000000000000000000e+00,2.064227263505633658e+01,2.572930061350130249e+00,-6.308619328242273117e-01,0.000000000000000000e+00,0.000000000000000000e+00,0.000000000000000000e+00,3.739133355937166669e+01,-1.246448496333342071e+01
1.330937500000003819e-02,0.000000000000000000e+00,0.000000000000000000e+00,2.668495301307491352e-01,0.000000000000000000e+00,0.000000000000000000e+00,2.155885650905234030e+01,2.585284249993958117e+00,-6.457507500442153381e-01,0.000000000000000000e+00,0.000000000000000000e+00,0.000000000000000000e+00,3.753226975485134886e+01,-1.251098275115997716e+01
1.338437500000003860e-02,0.000000000000000000e+00,0.000000000000000000e+00,2.685269841824476922e-01,0.000000000000000000e+00,0.000000000000000000e+00,2.276854495156372593e+01,2.630451832074004237e+00,-6.663193638752203940e-01,0.000000000000000000e+00,0.000000000000000000e+00,0.000000000000000000e+00,3.774371802335073767e+01,-1.258149952784444459e+01
1.340937500000003932e-02,0.000000000000000000e+00,0.000000000000000000e+00,2.690843577107049911e-01,0.000000000000000000e+00,0.000000000000000000e+00,2.372753683046911277e+01,2.657198252218897050e+00,-6.918760406101097660e-01,0.000000000000000000e+00,0.000000000000000000e+00,0.000000000000000000e+00,3.781451219880496950e+01,-1.260437679287272417e+01
1.345937500000004075e-02,0.000000000000000000e+00,0.000000000000000000e+00,2.702643205756501410e-01,0.000000000000000000e+00,0.000000000000000000e+00,2.395359894767933184e+01,2.690744471433060614e+00,-6.855065518851435336e-01,0.000000000000000000e+00,0.000000000000000000e+00,0.000000000000000000e+00,3.795529902113214860e+01,-1.265229788900282593e+01
1.350937500000004218e-02,0.000000000000000000e+00,0.000000000000000000e+00,2.714508990364029595e-01,0.000000000000000000e+00,0.000000000000000000e+00,2.393323834432305119e+01,2.675259622043354657e+00,-6.866296560333277066e-01,0.000000000000000000e+00,0.000000000000000000e+00,0.000000000000000000e+00,3.809616415434555847e+01,-1.269967024450366821e+01
1.355937500000004362e-02,0.000000000000000000e+00,0.000000000000000000e+00,2.726374716391601338e-01,0.000000000000000000e+00,0.000000000000000000e+00,2.374330340483156121e+01,2.652445352399292133e+00,-6.956190375132975667e-01,0.000000000000000000e+00,0.000000000000000000e+00,0.000000000000000000e+00,3.823708553602536853e+01,-1.274653533224519286e+01
1.360937500000004505e-02,0.000000000000000000e+00,0.000000000000000000e+00,2.738181932590187939e-01,0.000000000000000000e+00,0.000000000000000000e+00,2.342580895182446810e+01,2.645029967954247052e+00,-7.083155081861284286e-01,0.000000000000000000e+00,0.000000000000000000e+00,0.000000000000000000e+00,3.837804666044742419e+01,-1.279329746503114151e+01
1.368437500000004546e-02,0.000000000000000000e+00,0.000000000000000000e+00,2.755612444330212130e-01,0.000000000000000000e+00,0.000000000000000000e+00,2.278452868544103538e+01,2.656800598393559643e+00,-7.239564458193668006e-01,0.000000000000000000e+00,0.000000000000000000e+00,0.000000000000000000e+00,3.858953037279232490e+01,-1.286374908662390837e+01
1.373437500000004516e-02,0.000000000000000000e+00,0.000000000000000000e+00,2.766988060741567002e-01,0.000000000000000000e+00,0.000000000000000000e+00,2.265740213050427698e+01,2.664969384008506026e+00,-7.332784014087165847e-01,0.000000000000000000e+00,0.000000000000000000e+00,0.000000000000000000e+00,3.873134686152867801e+01,-1.291096605308081280e+01
1.378437500000004486e-02,0.000000000000000000e+00,0.000000000000000000e+00,2.778053583101429136e-01,0.000000000000000000e+00,0.000000000000000000e+00,2.165291055821434441e+01,2.658399903054667668e+00,-7.308979197375119474e-01,0.000000000000000000e+00,0.000000000000000000e+00,0.000000000000000000e+00,3.887153042228879940e+01,-1.295801232246477852e+01
1.383437500000004455e-02,0.000000000000000000e+00,0.000000000000000000e+00,2.788903070286734565e-01,0.000000000000000000e+00,0.000000000000000000e+00,2.170491173974091126e+01,2.650928456997451388e+00,-7.370922750341377672e-01,0.000000000000000000e+00,0.000000000000000000e+00,0.000000000000000000e+00,3.901333865704270920e+01,-1.300503694299413127e+01
1.388437500000004425e-02,0.000000000000000000e+00,0.000000000000000000e+00,2.799510594530197904e-01,0.000000000000000000e+00,0.000000000000000000e+00,2.075914212489051636e+01,2.635987946169186635e+00,-7.331366479054070018e-01,0.000000000000000000e+00,0.000000000000000000e+00,0.000000000000000000e+00,3.915354515027130589e+01,-1.305193244751732173e+01
1.393437500000004395e-02,0.000000000000000000e+00,0.000000000000000000e+00,2.806671219818747676e-01,0.000000000000000000e+00,0.000000000000000000e+00,7.915590296368794299e+00,2.344261428751468035e+00,-4.832130461037280056e-01,0.000000000000000000e+00,0.000000000000000000e+00,0.000000000000000000e+00,3.929531879230878388e+01,-1.309857800600066646e+01
1.398437500000004365e-02,0.000000000000000000e+00,0.000000000000000000e+00,2.807505246943744481e-01,0.000000000000000000e+00,0.000000000000000000e+00,-4.604470521754450374e+00,2.100272761614372818e+00,-3.526918788056627729e-01,0.000000000000000000e+00,0.000000000000000000e+00,0.000000000000000000e+00,3.943556897712564080e+01,-1.314488498382939419e+01
1.403437500000004334e-02,0.000000000000000000e+00,0.000000000000000000e+00,2.807803258767515575e-01,0.000000000000000000e+00,0.000000000000000000e+00,5.705457041125205464e+00,2.389258120347746761e+00,-7.010502153078215226e-01,0.000000000000000000e+00,0.000000000000000000e+00,0.000000000000000000e+00,3.957729199440505852e+01,-1.319193007852534194e+01
1.408437500000004304e-02,0.000000000000000000e+00,0.000000000000000000e+00,2.812901948976070932e-01,0.000000000000000000e+00,0.000000000000000000e+00,1.476152912033472475e+01,2.557344808283077420e+00,-8.124543203122446267e-01,0.000000000000000000e+00,0.000000000000000000e+00,0.000000000000000000e+00,3.971759791359885128e+01,-1.323987279056799515e+01
1.413437500000004274e-02,0.000000000000000000e+00,0.000000000000000000e+00,2.822392874737223445e-01,0.000000000000000000e+00,0.000000000000000000e+00,2.315282715063390029e+01,2.556362775505197416e+00,-7.698097427132960524e-01,0.000000000000000000e+00,0.000000000000000000e+00,0.000000000000000000e+00,3.985926161505371113e+01,-1.328754540211362567e+01
1.423437500000004213e-02,0.000000000000000000e+00,0.000000000000000000e+00,2.851408942513148359e-01,0.000000000000000000e+00,0.000000000000000000e+00,3.489914424108714286e+01,2.691666437957388247e+00,-8.198156749162651691e-01,0.000000000000000000e+00,0.000000000000000000e+00,0.000000000000000000e+00,4.014064331025468846e+01,-1.338090874742873737e+01
1.433437500000004153e-02,0.000000000000000000e+00,0.000000000000000000e+00,2.880058486850424204e-01,0.000000000000000000e+00,0.000000000000000000e+00,2.250104190602565524e+01,2.473073521456790491e+00,-5.936343701922978111e-01,0.000000000000000000e+00,0.000000000000000000e+00,0.000000000000000000e+00,4.042320450834644419e+01,-1.347369062886776092e+01
1.443437500000004092e-02,0.000000000000000000e+00,0.000000000000000000e+00,2.900551945334610693e-01,0.000000000000000000e+00,0.000000000000000000e+00,1.837278100844070750e+01,2.575472874224167708e+00,-7.520225109557546750e-01,0.000000000000000000e+00,0.000000000000000000e+00,0.000000000000000000e+00,4.070469517866896325e+01,-1.356816614939178400e+01
1.453437500000004032e-02,0.000000000000000000e+00,0.000000000000000000e+00,2.926357304704227946e-01,0.000000000000000000e+00,0.000000000000000000e+00,3.322935143828821936e+01,2.930823087928963400e+00,-1.046768633884385791e+00,0.000000000000000000e+00,0.000000000000000000e+00,0.000000000000000000e+00,4.098715740163611088e+01,-1.366382269638033087e+01
1.463437500000003971e-02,0.000000000000000000e+00,0.000000000000000000e+00,2.959326320563026580e-01,0.000000000000000000e+00,0.000000000000000000e+00,3.278812007954637409e+01,2.809626752781993808e+00,-8.917795090054975171e-01,0.000000000000000000e+00,0.000000000000000000e+00,0.000000000000000000e+00,4.126873795733303041e+01,-1.375754534476286040e+01
1.473437500000003911e-02,0.000000000000000000e+00,0.000000000000000000e+00,2.980100891427555632e-01,0.000000000000000000e+00,0.000000000000000000e+00,8.815836018250784889e+00,2.886843154257030530e+00,-1.144058105216799293e+00,0.000000000000000000e+00,0.000000000000000000e+00,0.000000000000000000e+00,4.155111855647386676e+01,-1.385021540338381385e+01
1.483437500000003850e-02,0.000000000000000000e+00,0.000000000000000000e+00,2.979888304541858934e-01,0.000000000000000000e+00,0.000000000000000000e+00,-9.308853705367798881e+00,2.963065693767087172e+00,-1.446038074472425272e+00,0.000000000000000000e+00,0.000000000000000000e+00,0.000000000000000000e+00,4.183277322790698349e+01,-1.394544141334719178e+01
1.493437500000003790e-02,0.000000000000000000e+00,0.000000000000000000e+00,2.978078100650308202e-01,0.000000000000000000e+00,0.000000000000000000e+00,5.579828235784252577e+00,2.506248808848153597e+00,-1.062487749186256547e+00,0.000000000000000000e+00,0.000000000000000000e+00,0.000000000000000000e+00,4.211508653402366065e+01,-1.404094563685785246e+01
1.503437500000003729e-02,0.000000000000000000e+00,0.000000000000000000e+00,2.982029731367602521e-01,0.000000000000000000e+00,0.000000000000000000e+00,2.488456843200620217e+00,1.890548013103919178e+00,-5.469681977172001774e-01,0.000000000000000000e+00,0.000000000000000000e+00,0.000000000000000000e+00,4.239680229915291676e+01,-1.413243686537719590e+01
1.513437500000003669e-02,0.000000000000000000e+00,0.000000000000000000e+00,2.980660569904917678e-01,0.000000000000000000e+00,0.000000000000000000e+00,-5.324207048233775552e+00,4.261819728460599421e+00,-1.824500726558608843e+00,0.000000000000000000e+00,0.000000000000000000e+00,0.000000000000000000e+00,4.267906014396513115e+01,-1.422633995272612673e+01
1.523437500000003608e-02,0.000000000000000000e+00,0.000000000000000000e+00,2.991451789431966435e-01,0.000000000000000000e+00,0.000000000000000000e+00,2.678648148074441693e+01,9.401261813785866117e-01,2.369562443995448242e-01,0.000000000000000000e+00,0.000000000000000000e+00,0.000000000000000000e+00,4.296082625354835471e+01,-1.432286485770900875e+01
1.533437500000003548e-02,0.000000000000000000e+00,0.000000000000000000e+00,3.008510488329170784e-01,0.000000000000000000e+00,0.000000000000000000e+00,7.663446200222331584e+00,3.729180227241562395e+00,-1.526876539635605434e+00,0.000000000000000000e+00,0.000000000000000000e+00,0.000000000000000000e+00,4.324303840200103366e+01,-1.441432861795225762e+01
1.543437500000003487e-02,0.000000000000000000e+00,0.000000000000000000e+00,3.018539845422069656e-01,0.000000000000000000e+00,0.000000000000000000e+00,1.204098512927634346e+01,3.324945567855236983e-01,5.691234545157253244e-01,0.000000000000000000e+00,0.000000000000000000e+00,0.000000000000000000e+00,4.352484598602335097e+01,-1.450675480463693745e+01
1.545937500000003559e-02,0.000000000000000000e+00,0.000000000000000000e+00,3.024744052321165499e-01,0.000000000000000000e+00,0.000000000000000000e+00,3.788775994008297943e+01,1.636254008934621584e+00,-5.662739016155656779e-01,0.000000000000000000e+00,0.000000000000000000e+00,0.000000000000000000e+00,4.359548180518157068e+01,-1.453045603401653629e+01
1.548437500000003630e-02,0.000000000000000000e+00,0.000000000000000000e+00,3.035919907618563895e-01,0.000000000000000000e+00,0.000000000000000000e+00,5.136366239658446631e+01,1.906996104200336273e+00,-7.322774066318845643e-01,0.000000000000000000e+00,0.000000000000000000e+00,0.000000000000000000e+00,4.366593187700943446e+01,-1.455469139949991586e+01
1.553437500000003774e-02,0.000000000000000000e+00,0.000000000000000000e+00,3.059691937843901921e-01,0.000000000000000000e+00,0.000000000000000000e+00,3.886186556209645460e+01,1.844501161120712052e+00,-4.847164404469774812e-01,0.000000000000000000e+00,0.000000000000000000e+00,0.000000000000000000e+00,4.380698843307802548e+01,-1.460231545973180545e+01
1.558437500000003917e-02,0.000000000000000000e+00,0.000000000000000000e+00,3.067144275769330686e-01,0.000000000000000000e+00,0.000000000000000000e+00,-1.347073597442372872e+01,2.914634732473572853e+00,-5.308134344194903598e-01,0.000000000000000000e+00,0.000000000000000000e+00,0.000000000000000000e+00,4.394802370082458509e+01,-1.465051635902975313e+01
1.563437500000004060e-02,0.000000000000000000e+00,0.000000000000000000e+00,3.063382158842421488e-01,0.000000000000000000e+00,0.000000000000000000e+00,3.440524848485110976e+00,1.808810449016308164e+00,-1.980695655940031552e-01,0.000000000000000000e+00,0.000000000000000000e+00,0.000000000000000000e+00,4.408904372813653794e+01,-1.469863085095304278e+01
1.568437500000004203e-02,0.000000000000000000e+00,0.000000000000000000e+00,3.070426712196946961e-01,0.000000000000000000e+00,0.000000000000000000e+00,2.441727526983233076e+01,1.719290308661323374e+00,-4.537981077581975664e-01,0.000000000000000000e+00,0.000000000000000000e+00,0.000000000000000000e+00,4.423005303322782567e+01,-1.474414540693464026e+01
1.573437500000004347e-02,0.000000000000000000e+00,0.000000000000000000e+00,3.086881905022026973e-01,0.000000000000000000e+00,0.000000000000000000e+00,4.135696733726094720e+01,1.951316899595941790e+00,-7.136980393163463443e-01,0.000000000000000000e+00,0.000000000000000000e+00,0.000000000000000000e+00,4.437081795616305158e+01,-1.478932331382726595e+01
1.578437500000004490e-02,0.000000000000000000e+00,0.000000000000000000e+00,3.107630295214464655e-01,0.000000000000000000e+00,0.000000000000000000e+00,3.613366368379648463e+01,7.277574681332469986e+00,-3.998712563273080445e+00,0.000000000000000000e+00,0.000000000000000000e+00,0.000000000000000000e+00,4.451209925835001258e+01,-1.483634406317995413e+01
1.583437500000004633e-02,0.000000000000000000e+00,0.000000000000000000e+00,3.113669385695810310e-01,0.000000000000000000e+00,0.000000000000000000e+00,-4.012612266280335405e+00,2.381733157115809796e+00,-3.414123469024529789e-01,0.000000000000000000e+00,0.000000000000000000e+00,0.000000000000000000e+00,4.465327798124221914e+01,-1.488705406810375464e+01
1.588437500000004776e-02,0.000000000000000000e+00,0.000000000000000000e+00,3.113925857842970712e-01,0.000000000000000000e+00,0.000000000000000000e+00,8.106203110234698528e+00,1.535041042826126079e+00,-2.254089668609210173e-01,0.000000000000000000e+00,0.000000000000000000e+00,0.000000000000000000e+00,4.479438294995578929e+01,-1.493282893241030251e+01
1.593437500000004919e-02,0.000000000000000000e+00,0.000000000000000000e+00,3.121246777151866492e-01,0.000000000000000000e+00,0.000000000000000000e+00,2.311669607991204956e+01,1.575514727897599387e+00,-5.107635227981596193e-01,0.000000000000000000e+00,0.000000000000000000e+00,0.000000000000000000e+00,4.493543573919046707e+01,-1.497721061784166707e+01
1.598437500000005063e-02,0.000000000000000000e+00,0.000000000000000000e+00,3.135647401226664410e-01,0.000000000000000000e+00,0.000000000000000000e+00,3.626621715970932769e+01,1.891996562397292081e+00,-7.639100809656540481e-01,0.000000000000000000e+00,0.000000000000000000e+00,0.000000000000000000e+00,4.507645238777335805e+01,-1.502331144323752454e+01
1.603437500000005206e-02,0.000000000000000000e+00,0.000000000000000000e+00,3.142640167054922551e-01,0.000000000000000000e+00,0.000000000000000000e+00,-7.864956305967128358e+00,9.072510566075155936e+00,-4.836043998775541475e+00,0.000000000000000000e+00,0.000000000000000000e+00,0.000000000000000000e+00,4.521642283272256435e+01,-1.507339786087553613e+01
1.608437500000005349e-02,0.000000000000000000e+00,0.000000000000000000e+00,3.131516899749653415e-01,0.000000000000000000e+00,0.000000000000000000e+00,-3.701267502484685679e+01,7.334084266739150371e-01,1.102551838993641065e+00,0.000000000000000000e+00,0.000000000000000000e+00,0.000000000000000000e+00,4.535844684200690580e+01,-1.512537155661200750e+01
1.613437500000005492e-02,0.000000000000000000e+00,0.000000000000000000e+00,3.123520444961153109e-01,0.000000000000000000e+00,0.000000000000000000e+00,4.966218685441657676e+00,8.716929192383752190e-01,3.727486110454927837e-02,0.000000000000000000e+00,0.000000000000000000e+00,0.000000000000000000e+00,4.549843756488544955e+01,-1.517048372154716773e+01
1.618437500000005635e-02,0.000000000000000000e+00,0.000000000000000000e+00,3.133403930272691817e-01,0.000000000000000000e+00,0.000000000000000000e+00,3.467055228460390737e+01,3.129000089050366640e-01,1.166228466551239989e-01,0.000000000000000000e+00,0.000000000000000000e+00,0.000000000000000000e+00,4.564042481618439240e+01,-1.521090991821395555e+01
1.623437500000005779e-02,0.000000000000000000e+00,0.000000000000000000e+00,3.142115214953777325e-01,0.000000000000000000e+00,0.000000000000000000e+00,4.058730178957746237e-01,8.056566792546410838e+00,-4.544799829893897858e+00,0.000000000000000000e+00,0.000000000000000000e+00,0.000000000000000000e+00,4.578046527831405399e+01,-1.525664201352018701e+01
1.628437500000005922e-02,0.000000000000000000e+00,0.000000000000000000e+00,3.138279161192967792e-01,0.000000000000000000e+00,0.000000000000000000e+00,-1.600372748050500959e+01,5.297204578468260941e-03,1.350691840300929814e+00,0.000000000000000000e+00,0.000000000000000000e+00,0.000000000000000000e+00,4.592239277292958377e+01,-1.530846871550368782e+01
1.633437500000006065e-02,0.000000000000000000e+00,0.000000000000000000e+00,3.141615215825433460e-01,0.000000000000000000e+00,0.000000000000000000e+00,2.923743133300912334e+01,7.745461068010252026e-01,-4.078669842295869902e-02,0.000000000000000000e+00,0.000000000000000000e+00,0.000000000000000000e+00,4.606250050829972054e+01,-1.535692635615559354e+01
1.638437500000006208e-02,0.000000000000000000e+00,0.000000000000000000e+00,3.159938276104841681e-01,0.000000000000000000e+00,0.000000000000000000e+00,4.427967650519450871e+01,6.642553744204329202e-01,-1.968395500430401845e-02,0.000000000000000000e+00,0.000000000000000000e+00,0.000000000000000000e+00,4.620435531399229490e+01,-1.540014602362212415e+01
1.643437500000006352e-02,0.000000000000000000e+00,0.000000000000000000e+00,3.176043097930865700e-01,0.000000000000000000e+00,0.000000000000000000e+00,2.016343255771583287e+01,5.585544010222116995e+00,-3.057789273379101669e+00,0.000000000000000000e+00,0.000000000000000000e+00,0.000000000000000000e+00,4.634453939809659317e+01,-1.544563317774146505e+01
1.648437500000006495e-02,0.000000000000000000e+00,0.000000000000000000e+00,3.188552946732434723e-01,0.000000000000000000e+00,0.000000000000000000e+00,2.969763083247038082e+01,1.987568993389382088e+00,-3.282209177677248846e-01,0.000000000000000000e+00,0.000000000000000000e+00,0.000000000000000000e+00,4.648631565410000377e+01,-1.549579837558139417e+01
1.658437500000006434e-02,0.000000000000000000e+00,0.000000000000000000e+00,3.226420972351063954e-01,0.000000000000000000e+00,0.000000000000000000e+00,4.613508633215772647e+01,2.193274979155204640e+00,-9.127423162582888327e-01,0.000000000000000000e+00,0.000000000000000000e+00,0.000000000000000000e+00,4.676759733365813787e+01,-1.559162575311501620e+01
1.668437500000006374e-02,0.000000000000000000e+00,0.000000000000000000e+00,3.265359086884823125e-01,0.000000000000000000e+00,0.000000000000000000e+00,3.181799120267474379e+01,4.360936601827973824e+00,-2.095783383296839553e+00,0.000000000000000000e+00,0.000000000000000000e+00,0.000000000000000000e+00,4.705024349459469590e+01,-1.568318437284169953e+01
1.678437500000006313e-02,0.000000000000000000e+00,0.000000000000000000e+00,3.302800880930555905e-01,0.000000000000000000e+00,0.000000000000000000e+00,4.288823656570747289e+01,1.765452155042539273e+00,-5.038030541966120879e-01,0.000000000000000000e+00,0.000000000000000000e+00,0.000000000000000000e+00,4.733166224446695480e+01,-1.577898526362337606e+01
1.688437500000006253e-02,0.000000000000000000e+00,0.000000000000000000e+00,3.332699363347763066e-01,0.000000000000000000e+00,0.000000000000000000e+00,1.721353075808370292e+01,4.329259462179673612e+00,-2.142965521753296354e+00,0.000000000000000000e+00,0.000000000000000000e+00,0.000000000000000000e+00,4.761418510433666285e+01,-1.587293055277070053e+01
1.690937500000006324e-02,0.000000000000000000e+00,0.000000000000000000e+00,3.334871494795637048e-01,0.000000000000000000e+00,0.000000000000000000e+00,4.494894965180651347e-01,2.341610646015427122e+00,-7.128118827854134087e-01,0.000000000000000000e+00,0.000000000000000000e+00,0.000000000000000000e+00,4.768415421984010294e+01,-1.589598517927521293e+01
1.693437500000006049e-02,0.000000000000000000e+00,0.000000000000000000e+00,3.335655327880701626e-01,0.000000000000000000e+00,0.000000000000000000e+00,5.387451029646610934e+00,1.918042359049792367e+00,-5.822583827440457327e-01,0.000000000000000000e+00,0.000000000000000000e+00,0.000000000000000000e+00,4.775483214793026576e+01,-1.591918833723380189e+01
1.698437500000005498e-02,0.000000000000000000e+00,0.000000000000000000e+00,3.341701560400632820e-01,0.000000000000000000e+00,0.000000000000000000e+00,1.870237825067039594e+01,1.703114770662060184e+00,-6.626121732823319066e-01,0.000000000000000000e+00,0.000000000000000000e+00,0.000000000000000000e+00,4.789603122890436282e+01,-1.596526583867341031e+01
1.703437500000004948e-02,0.000000000000000000e+00,0.000000000000000000e+00,3.353857988807106283e-01,0.000000000000000000e+00,0.000000000000000000e+00,3.051202607715546478e+01,1.835852907171745096e+00,-8.320948691264277164e-01,0.000000000000000000e+00,0.000000000000000000e+00,0.000000000000000000e+00,4.803710584168007358e+01,-1.601179664391903046e+01
1.708437500000005091e-02,0.000000000000000000e+00,0.000000000000000000e+00,3.365190479015706670e-01,0.000000000000000000e+00,0.000000000000000000e+00,1.272747744706323481e+01,1.492098457493251429e+00,-4.737852094655503055e-01,0.000000000000000000e+00,0.000000000000000000e+00,0.000000000000000000e+00,4.817813161571845626e+01,-1.605821225807179076e+01
1.713437500000005234e-02,0.000000000000000000e+00,0.000000000000000000e+00,3.370943208356441123e-01,0.000000000000000000e+00,0.000000000000000000e+00,7.875529064092658516e+00,7.303779837900151506e+00,-4.398785959849841554e+00,0.000000000000000000e+00,0.000000000000000000e+00,0.000000000000000000e+00,4.831914151848366856e+01,-1.610545973846621948e+01
1.718437500000005377e-02,0.000000000000000000e+00,0.000000000000000000e+00,3.369954949543866873e-01,0.000000000000000000e+00,0.000000000000000000e+00,4.289962162674326174e-01,2.885797983695558511e+00,-1.113582378593757749e+00,0.000000000000000000e+00,0.000000000000000000e+00,0.000000000000000000e+00,4.846014065062094289e+01,-1.615769714393472967e+01
1.723437500000005521e-02,0.000000000000000000e+00,0.000000000000000000e+00,3.375280275412432807e-01,0.000000000000000000e+00,0.000000000000000000e+00,2.016887883942364112e+01,1.813048639917819171e+00,-6.550816681990297985e-01,0.000000000000000000e+00,0.000000000000000000e+00,0.000000000000000000e+00,4.860113274748106704e+01,-1.620449247403533022e+01
1.728437500000005664e-02,0.000000000000000000e+00,0.000000000000000000e+00,3.383446955693060754e-01,0.000000000000000000e+00,0.000000000000000000e+00,9.659790878389809876e+00,1.043052310178808506e+00,-1.954790903421090020e-01,0.000000000000000000e+00,0.000000000000000000e+00,0.000000000000000000e+00,4.874212051379590349e+01,-1.624655615654861052e+01
1.733437500000005807e-02,0.000000000000000000e+00,0.000000000000000000e+00,3.391305593566377730e-01,0.000000000000000000e+00,0.000000000000000000e+00,2.170952806595321150e+01,1.376072173674447674e+00,-5.769457412071644642e-01,0.000000000000000000e+00,0.000000000000000000e+00,0.000000000000000000e+00,4.888276779689226714e+01,-1.628979042637965691e+01
1.738437500000005950e-02,0.000000000000000000e+00,0.000000000000000000e+00,3.402335966532735179e-01,0.000000000000000000e+00,0.000000000000000000e+00,2.251321450848042360e+01,6.023944823041365026e+00,-3.519724655541697889e+00,0.000000000000000000e+00,0.000000000000000000e+00,0.000000000000000000e+00,4.902409472442366223e+01,-1.633924418437250381e+01
1.743437500000006093e-02,0.000000000000000000e+00,0.000000000000000000e+00,3.412605242672825390e-01,0.000000000000000000e+00,0.000000000000000000e+00,1.851323720964659003e+01,1.917897088351992130e+00,-3.425975048975518633e-01,0.000000000000000000e+00,0.000000000000000000e+00,0.000000000000000000e+00,4.916479195556130577e+01,-1.639239363872918886e+01
1.748437500000006237e-02,0.000000000000000000e+00,0.000000000000000000e+00,3.424329491935251268e-01,0.000000000000000000e+00,0.000000000000000000e+00,2.835437285001199825e+01,1.666912942865010461e+00,-5.179798151366191705e-01,0.000000000000000000e+00,0.000000000000000000e+00,0.000000000000000000e+00,4.930607212821294638e+01,-1.644001364795445141e+01
1.753437500000006380e-02,0.000000000000000000e+00,0.000000000000000000e+00,3.437697104767949985e-01,0.000000000000000000e+00,0.000000000000000000e+00,2.519963206410023204e+01,1.032932369269583983e+00,-2.227647804057938663e-01,0.000000000000000000e+00,0.000000000000000000e+00,0.000000000000000000e+00,4.944681306022064149e+01,-1.648187958298170841e+01
1.758437500000006523e-02,0.000000000000000000e+00,0.000000000000000000e+00,3.450147203461353396e-01,0.000000000000000000e+00,0.000000000000000000e+00,2.452811501381495773e+01,5.808435444214026688e+00,-3.485576694993045344e+00,0.000000000000000000e+00,0.000000000000000000e+00,0.000000000000000000e+00,4.958805244275737323e+01,-1.652679641508914088e+01
1.763437500000006666e-02,0.000000000000000000e+00,0.000000000000000000e+00,3.461986785937801736e-01,0.000000000000000000e+00,0.000000000000000000e+00,2.288768552444325621e+01,1.783494747113519630e+00,-3.676965190769336811e-01,0.000000000000000000e+00,0.000000000000000000e+00,0.000000000000000000e+00,4.972883139925918528e+01,-1.657728157394337387e+01
1.768437500000006810e-02,0.000000000000000000e+00,0.000000000000000000e+00,3.474886939692412580e-01,0.000000000000000000e+00,0.000000000000000000e+00,2.863578087689090879e+01,1.652045211583305528e+00,-5.740285714138942952e-01,0.000000000000000000e+00,0.000000000000000000e+00,0.000000000000000000e+00,4.987003537770408457e+01,-1.662586065127341683e+01
1.773437500000006953e-02,0.000000000000000000e+00,0.000000000000000000e+00,3.488727698178217262e-01,0.000000000000000000e+00,0.000000000000000000e+00,2.681955408044244393e+01,1.071753631078839586e+00,-2.660348527497364834e-01,0.000000000000000000e+00,0.000000000000000000e+00,0.000000000000000000e+00,5.001084726174179451e+01,-1.667010802358914745e+01
1.778437500000007096e-02,0.000000000000000000e+00,0.000000000000000000e+00,3.506288514935123612e-01,0.000000000000000000e+00,0.000000000000000000e+00,4.326918847190714246e+01,2.011546911406608018e+00,-1.100084506651756611e+00,0.000000000000000000e+00,0.000000000000000000e+00,0.000000000000000000e+00,5.015202064793034964e+01,-1.671497622177938069e+01
