time[s],flange_omega_x[rad/s],flange_omega_y[rad/s],flange_omega_z[rad/s],flange_alpha_x[rad/s2],flange_alpha_y[rad/s2],flange_alpha_z[rad/s2],cycloid_acc_x[m/s2],cycloid_acc_y[m/s2],cycloid_acc_z[m/s2],input_omega_x[rad/s],input_omega_y[rad/s],input_omega_z[rad/s],crank_omega_z[rad/s]
0.000000000000000000e+00,0.000000000000000000e+00,0.000000000000000000e+00,0.000000000000000000e+00,0.000000000000000000e+00,0.000000000000000000e+00,5.493317145955382875e+04,-9.007359125380502007e+01,1.802990128583228397e+02,0.000000000000000000e+00,0.000000000000000000e+00,0.000000000000000000e+00,0.000000000000000000e+00,0.000000000000000000e+00
5.078124999999999767e-05,0.000000000000000000e+00,0.000000000000000000e+00,1.381756866235067660e-02,0.000000000000000000e+00,0.000000000000000000e+00,1.810255430230978746e+01,3.623521864776690915e-01,3.819985795079662694e+01,0.000000000000000000e+00,0.000000000000000000e+00,0.000000000000000000e+00,1.432034980044278039e-01,-5.528256160896110466e-02
1.039062499999999947e-04,0.000000000000000000e+00,0.000000000000000000e+00,1.422481852239531643e-02,0.000000000000000000e+00,0.000000000000000000e+00,-8.997406427018606934e+00,9.985098697563024928e+00,2.686359769207535564e+01,0.000000000000000000e+00,0.000000000000000000e+00,0.000000000000000000e+00,2.930153923117959081e-01,-7.811952670957600375e-02
1.539062499999999361e-04,0.000000000000000000e+00,0.000000000000000000e+00,1.308654724351843504e-02,0.000000000000000000e+00,0.000000000000000000e+00,-3.311910344860655186e+01,1.001863464766296374e+01,5.302538473087691884e+00,0.000000000000000000e+00,0.000000000000000000e+00,0.000000000000000000e+00,4.340153943539170056e-01,-1.213576389853743553e-01
2.039062499999999317e-04,0.000000000000000000e+00,0.000000000000000000e+00,1.178057870466631303e-02,0.000000000000000000e+00,0.000000000000000000e+00,-1.260119410026864450e+01,6.899428911304128498e+00,-1.070104497555380618e+01,0.000000000000000000e+00,0.000000000000000000e+00,0.000000000000000000e+00,5.750157890143959838e-01,-1.835896658479778953e-01
2.539062499999999545e-04,0.000000000000000000e+00,0.000000000000000000e+00,1.163086951822348350e-02,0.000000000000000000e+00,0.000000000000000000e+00,1.100724450396093523e+01,3.886806317536366961e+00,-1.757345484288051907e+01,0.000000000000000000e+00,0.000000000000000000e+00,0.000000000000000000e+00,7.160157400965529995e-01,-2.417217223553100036e-01
3.164062499999999016e-04,0.000000000000000000e+00,0.000000000000000000e+00,1.212621977113587449e-02,0.000000000000000000e+00,0.000000000000000000e+00,7.162489582065250104e+00,2.522282605139550160e+00,-1.664461408724910285e+01,0.000000000000000000e+00,0.000000000000000000e+00,0.000000000000000000e+00,8.922656982950045723e-01,-2.953040151406022829e-01
3.539062499999998373e-04,0.000000000000000000e+00,0.000000000000000000e+00,1.258462467690568860e-02,0.000000000000000000e+00,0.000000000000000000e+00,1.647510477846303800e+01,2.337411682323294215e+00,-1.477752049575650695e+01,0.000000000000000000e+00,0.000000000000000000e+00,0.000000000000000000e+00,9.978207466106421286e-01,-3.307773097287619035e-01
4.039062499999997516e-04,0.000000000000000000e+00,0.000000000000000000e+00,1.389201908836622083e-02,0.000000000000000000e+00,0.000000000000000000e+00,2.889764661602031381e+01,1.855451889099061002e+00,-1.120956704403734960e+01,0.000000000000000000e+00,0.000000000000000000e+00,0.000000000000000000e+00,1.138717332416111727e+00,-3.836082713452701465e-01
4.539062499999996659e-04,0.000000000000000000e+00,0.000000000000000000e+00,1.568658487486505534e-02,0.000000000000000000e+00,0.000000000000000000e+00,3.839043106683686801e+01,1.488941925152203583e+00,-7.536578222999677834e+00,0.000000000000000000e+00,0.000000000000000000e+00,0.000000000000000000e+00,1.279708094227968829e+00,-4.317123868231798056e-01
5.039062499999995802e-04,0.000000000000000000e+00,0.000000000000000000e+00,1.794129523106467727e-02,0.000000000000000000e+00,0.000000000000000000e+00,5.185913099030643991e+01,1.593690696880852409e+00,-4.540634275849670054e+00,0.000000000000000000e+00,0.000000000000000000e+00,0.000000000000000000e+00,1.421293365641281170e+00,-4.763032668087707200e-01
5.539062499999994945e-04,0.000000000000000000e+00,0.000000000000000000e+00,2.081211586529992802e-02,0.000000000000000000e+00,0.000000000000000000e+00,6.254465737875049314e+01,2.160519682010603404e+00,-2.458604386005029063e+00,0.000000000000000000e+00,0.000000000000000000e+00,0.000000000000000000e+00,1.562261317880280664e+00,-5.215655290477939632e-01
6.039062499999994088e-04,0.000000000000000000e+00,0.000000000000000000e+00,2.412983634975401914e-02,0.000000000000000000e+00,0.000000000000000000e+00,6.918681195903043601e+01,3.142931623617569059e+00,-1.191153152243566327e+00,0.000000000000000000e+00,0.000000000000000000e+00,0.000000000000000000e+00,1.703231421831325365e+00,-5.680791508467927242e-01
6.539062499999993231e-04,0.000000000000000000e+00,0.000000000000000000e+00,2.766257039452427180e-02,0.000000000000000000e+00,0.000000000000000000e+00,7.058871945050887575e+01,4.077362028912517644e+00,-5.059572850831159929e-01,0.000000000000000000e+00,0.000000000000000000e+00,0.000000000000000000e+00,1.844204016767987842e+00,-6.142209263260488550e-01
7.039062499999992374e-04,0.000000000000000000e+00,0.000000000000000000e+00,3.120868407350563603e-02,0.000000000000000000e+00,0.000000000000000000e+00,6.984751729863523906e+01,4.875286081366418500e+00,-1.472146153897488652e-01,0.000000000000000000e+00,0.000000000000000000e+00,0.000000000000000000e+00,1.985179235363117467e+00,-6.614816120155079249e-01
7.539062499999991517e-04,0.000000000000000000e+00,0.000000000000000000e+00,3.464923847035741161e-02,0.000000000000000000e+00,0.000000000000000000e+00,6.643550392213386147e+01,5.120235900708212995e+00,1.673724424759930329e-01,0.000000000000000000e+00,0.000000000000000000e+00,0.000000000000000000e+00,2.126157069949265122e+00,-7.095063603657889573e-01
8.039062499999991744e-04,0.000000000000000000e+00,0.000000000000000000e+00,3.788031332431100046e-02,0.000000000000000000e+00,0.000000000000000000e+00,6.278988529817609532e+01,4.917174702279646148e+00,3.581561969214663854e-01,0.000000000000000000e+00,0.000000000000000000e+00,0.000000000000000000e+00,2.266893733316206028e+00,-7.569248323312599558e-01
8.539062499999990887e-04,0.000000000000000000e+00,0.000000000000000000e+00,4.098993323884018297e-02,0.000000000000000000e+00,0.000000000000000000e+00,6.390742950132953126e+01,4.482864518466247894e+00,4.574088091021488722e-01,0.000000000000000000e+00,0.000000000000000000e+00,0.000000000000000000e+00,2.408212408744752953e+00,-8.047504435977436144e-01
9.039062499999990031e-04,0.000000000000000000e+00,0.000000000000000000e+00,4.411898674384244490e-02,0.000000000000000000e+00,0.000000000000000000e+00,6.310411441045860670e+01,3.926242788059920219e+00,6.992712427258233054e-01,0.000000000000000000e+00,0.000000000000000000e+00,0.000000000000000000e+00,2.549414387800243542e+00,-8.530913004509329545e-01
9.539062499999989174e-04,0.000000000000000000e+00,0.000000000000000000e+00,4.715779459811550445e-02,0.000000000000000000e+00,0.000000000000000000e+00,5.998760185701627279e+01,3.792127210808659221e+00,7.189412194865810735e-01,0.000000000000000000e+00,0.000000000000000000e+00,0.000000000000000000e+00,2.690532510921471943e+00,-9.009093179844193111e-01
1.003906249999998940e-03,0.000000000000000000e+00,0.000000000000000000e+00,4.997814013602886601e-02,0.000000000000000000e+00,0.000000000000000000e+00,5.416852202112674064e+01,3.838760315193268102e+00,7.021743839619351002e-01,0.000000000000000000e+00,0.000000000000000000e+00,0.000000000000000000e+00,2.831591351919584110e+00,-9.470981882627992343e-01
1.050781249999999632e-03,0.000000000000000000e+00,0.000000000000000000e+00,5.213919436058672002e-02,0.000000000000000000e+00,0.000000000000000000e+00,3.247448219684788739e+01,3.554679621186151994e+00,9.783604973821050654e-01,0.000000000000000000e+00,0.000000000000000000e+00,0.000000000000000000e+00,2.963638484506506909e+00,-9.893903702741965178e-01
1.103906249999999636e-03,0.000000000000000000e+00,0.000000000000000000e+00,5.215170729561571100e-02,0.000000000000000000e+00,0.000000000000000000e+00,-2.538772768954208203e+01,2.092536217867209114e+00,1.389829644609889447e+00,0.000000000000000000e+00,0.000000000000000000e+00,0.000000000000000000e+00,3.113168461619699734e+00,-1.037419265648103162e+00
1.153906249999999334e-03,0.000000000000000000e+00,0.000000000000000000e+00,5.076729811064608494e-02,0.000000000000000000e+00,0.000000000000000000e+00,-2.287589220653651267e+01,2.523703383712220916e+00,3.897197882987963879e-01,0.000000000000000000e+00,0.000000000000000000e+00,0.000000000000000000e+00,3.254067784881026437e+00,-1.085638748574321966e+00
1.203906249999999031e-03,0.000000000000000000e+00,0.000000000000000000e+00,5.017407426259073294e-02,0.000000000000000000e+00,0.000000000000000000e+00,-4.480473634180496822e-01,3.343160090581343002e+00,-5.258157107092462645e-01,0.000000000000000000e+00,0.000000000000000000e+00,0.000000000000000000e+00,3.395020450748703844e+00,-1.135352279916983731e+00
1.253906249999998728e-03,0.000000000000000000e+00,0.000000000000000000e+00,5.065794405561708375e-02,0.000000000000000000e+00,0.000000000000000000e+00,1.875441189162916444e+01,3.733825143433958882e+00,-8.098082394720839128e-01,0.000000000000000000e+00,0.000000000000000000e+00,0.000000000000000000e+00,3.536131511311232156e+00,-1.183149027886276183e+00
1.303906249999998426e-03,0.000000000000000000e+00,0.000000000000000000e+00,5.186798618333546967e-02,0.000000000000000000e+00,0.000000000000000000e+00,2.853805143288379753e+01,3.320867502589759379e+00,-7.097441059948103037e-01,0.000000000000000000e+00,0.000000000000000000e+00,0.000000000000000000e+00,3.677247541375592732e+00,-1.228159521881258431e+00
1.360156249999998086e-03,0.000000000000000000e+00,0.000000000000000000e+00,5.354609225029430264e-02,0.000000000000000000e+00,0.000000000000000000e+00,2.974975120353460412e+01,2.581260690111637945e+00,-5.556374441169068534e-01,0.000000000000000000e+00,0.000000000000000000e+00,0.000000000000000000e+00,3.835446251081036984e+00,-1.278018899010002762e+00
1.410156249999997783e-03,0.000000000000000000e+00,0.000000000000000000e+00,5.490959008746315595e-02,0.000000000000000000e+00,0.000000000000000000e+00,2.341051088996846374e+01,6.155075857806925343e-01,-1.310545980912717345e+00,0.000000000000000000e+00,0.000000000000000000e+00,0.000000000000000000e+00,3.976484232022210463e+00,-1.324974408889298738e+00
1.472656249999997622e-03,0.000000000000000000e+00,0.000000000000000000e+00,5.585562215926837687e-02,0.000000000000000000e+00,0.000000000000000000e+00,4.203584736825869861e+00,8.589064321763834053e-01,-4.670561933028310464e-01,0.000000000000000000e+00,0.000000000000000000e+00,0.000000000000000000e+00,4.152776673515850447e+00,-1.385752252571352150e+00
1.522656249999997753e-03,0.000000000000000000e+00,0.000000000000000000e+00,5.552740835418599336e-02,0.000000000000000000e+00,0.000000000000000000e+00,-1.710066013760331671e+01,6.477120893371621779e-01,-2.507210693159105941e-01,0.000000000000000000e+00,0.000000000000000000e+00,0.000000000000000000e+00,4.293802959642462724e+00,-1.433336812336934107e+00
1.572656249999997884e-03,0.000000000000000000e+00,0.000000000000000000e+00,5.421377918223216352e-02,0.000000000000000000e+00,0.000000000000000000e+00,-3.500344609966813181e+01,8.573799473432625051e-01,2.071801628640731197e-01,0.000000000000000000e+00,0.000000000000000000e+00,0.000000000000000000e+00,4.434823370689477962e+00,-1.480062233748288714e+00
1.622656249999998015e-03,0.000000000000000000e+00,0.000000000000000000e+00,5.223557791739966150e-02,0.000000000000000000e+00,0.000000000000000000e+00,-4.167914637843666270e+01,3.332540353560448088e-01,-3.907315359978151270e-01,0.000000000000000000e+00,0.000000000000000000e+00,0.000000000000000000e+00,4.575839190258074396e+00,-1.527913574673470665e+00
1.660156249999997788e-03,0.000000000000000000e+00,0.000000000000000000e+00,5.071131201032635233e-02,0.000000000000000000e+00,0.000000000000000000e+00,-3.976703365735227891e+01,2.787608938732430430e-01,-7.874456651602023127e-01,0.000000000000000000e+00,0.000000000000000000e+00,0.000000000000000000e+00,4.681682394978624373e+00,-1.563356308980194287e+00
1.710156249999997486e-03,0.000000000000000000e+00,0.000000000000000000e+00,4.884343075843298326e-02,0.000000000000000000e+00,0.000000000000000000e+00,-3.404705645937000469e+01,6.646971221445764355e-01,-9.808324538211596888e-01,0.000000000000000000e+00,0.000000000000000000e+00,0.000000000000000000e+00,4.822671769223443761e+00,-1.608781756912939231e+00
1.760156249999997183e-03,0.000000000000000000e+00,0.000000000000000000e+00,4.737127626246964707e-02,0.000000000000000000e+00,0.000000000000000000e+00,-2.459568820294986580e+01,1.231269885295463329e+00,-9.388717741678959117e-01,0.000000000000000000e+00,0.000000000000000000e+00,0.000000000000000000e+00,4.963663511843853904e+00,-1.654004953344394790e+00
1.803906249999996918e-03,0.000000000000000000e+00,0.000000000000000000e+00,4.647080793654093794e-02,0.000000000000000000e+00,0.000000000000000000e+00,-1.741161671601280503e+01,1.628014156029700565e+00,-7.157313682656131215e-01,0.000000000000000000e+00,0.000000000000000000e+00,0.000000000000000000e+00,5.086856484593169192e+00,-1.694539999184371704e+00
1.860156249999996578e-03,0.000000000000000000e+00,0.000000000000000000e+00,4.569584303888180044e-02,0.000000000000000000e+00,0.000000000000000000e+00,-1.063086951102189204e+01,1.946193286423928637e+00,-3.139617430230262629e-01,0.000000000000000000e+00,0.000000000000000000e+00,0.000000000000000000e+00,5.245504066018009226e+00,-1.747734306911387980e+00
1.910156249999996276e-03,0.000000000000000000e+00,0.000000000000000000e+00,4.523879749580510951e-02,0.000000000000000000e+00,0.000000000000000000e+00,-7.933794523467232018e+00,2.092878559523367432e+00,-3.988540058961464324e-02,0.000000000000000000e+00,0.000000000000000000e+00,0.000000000000000000e+00,5.386539844177136160e+00,-1.796163262555628082e+00
1.960156249999996190e-03,0.000000000000000000e+00,0.000000000000000000e+00,4.490815139310823378e-02,0.000000000000000000e+00,0.000000000000000000e+00,-5.085325754970323686e+00,2.045485231642656387e+00,1.269628055971785963e-01,0.000000000000000000e+00,0.000000000000000000e+00,0.000000000000000000e+00,5.527567164568874425e+00,-1.844207071344756033e+00
2.022656249999995812e-03,0.000000000000000000e+00,0.000000000000000000e+00,4.475236866079754239e-02,0.000000000000000000e+00,0.000000000000000000e+00,3.067351264266776067e-01,1.999958104143436666e+00,2.401673478322099431e-01,0.000000000000000000e+00,0.000000000000000000e+00,0.000000000000000000e+00,5.703939276633257727e+00,-1.902657770559635697e+00
2.072656249999995509e-03,0.000000000000000000e+00,0.000000000000000000e+00,4.490749521058603339e-02,0.000000000000000000e+00,0.000000000000000000e+00,6.165047932361471972e+00,2.068066744152516456e+00,2.877236361349610472e-01,0.000000000000000000e+00,0.000000000000000000e+00,0.000000000000000000e+00,5.844924979722444291e+00,-1.948657785306937118e+00
2.122656249999995207e-03,0.000000000000000000e+00,0.000000000000000000e+00,4.536241119226916418e-02,0.000000000000000000e+00,0.000000000000000000e+00,1.183756440111152664e+01,2.218903629696714397e+00,1.893053967059929177e-01,0.000000000000000000e+00,0.000000000000000000e+00,0.000000000000000000e+00,5.985914359313746935e+00,-1.994836340078257386e+00
2.172656249999994904e-03,0.000000000000000000e+00,0.000000000000000000e+00,4.609499486349819680e-02,0.000000000000000000e+00,0.000000000000000000e+00,1.763573926089619448e+01,2.358157560195567548e+00,1.148721852808889665e-01,0.000000000000000000e+00,0.000000000000000000e+00,0.000000000000000000e+00,6.126906534454865216e+00,-2.041412779223284790e+00
2.203906249999995366e-03,0.000000000000000000e+00,0.000000000000000000e+00,4.669752616807396062e-02,0.000000000000000000e+00,0.000000000000000000e+00,2.182232061758177011e+01,2.434181405386978803e+00,1.296360318277297308e-01,0.000000000000000000e+00,0.000000000000000000e+00,0.000000000000000000e+00,6.214949441388458062e+00,-2.070394295184645905e+00
2.260156249999996543e-03,0.000000000000000000e+00,0.000000000000000000e+00,4.816371398986867003e-02,0.000000000000000000e+00,0.000000000000000000e+00,3.033283385992823611e+01,2.588784715042920404e+00,2.041559011219455100e-01,0.000000000000000000e+00,0.000000000000000000e+00,0.000000000000000000e+00,6.373459554814938421e+00,-2.124915074212588184e+00
2.310156249999996241e-03,0.000000000000000000e+00,0.000000000000000000e+00,4.986106765297387139e-02,0.000000000000000000e+00,0.000000000000000000e+00,3.730541635381537446e+01,2.728936364793117519e+00,2.226958006806290802e-01,0.000000000000000000e+00,0.000000000000000000e+00,0.000000000000000000e+00,6.514467383857931893e+00,-2.173006243055518816e+00
2.360156249999995938e-03,0.000000000000000000e+00,0.000000000000000000e+00,5.186000641577399872e-02,0.000000000000000000e+00,0.000000000000000000e+00,4.231397841121469838e+01,2.878219859164476535e+00,1.758722271821344663e-01,0.000000000000000000e+00,0.000000000000000000e+00,0.000000000000000000e+00,6.655491242750858127e+00,-2.220063637997875094e+00
2.422656249999995560e-03,0.000000000000000000e+00,0.000000000000000000e+00,5.462292141923891925e-02,0.000000000000000000e+00,0.000000000000000000e+00,4.564916407492060557e+01,3.088693972662350351e+00,5.503240821602943533e-02,0.000000000000000000e+00,0.000000000000000000e+00,0.000000000000000000e+00,6.832007709150648367e+00,-2.278008824676474919e+00
2.472656249999995257e-03,0.000000000000000000e+00,0.000000000000000000e+00,5.692726610572156065e-02,0.000000000000000000e+00,0.000000000000000000e+00,4.635167759499452700e+01,3.256596772305358822e+00,-5.052252725733859945e-02,0.000000000000000000e+00,0.000000000000000000e+00,0.000000000000000000e+00,6.972986819711001871e+00,-2.324488094707476193e+00
2.522656249999994955e-03,0.000000000000000000e+00,0.000000000000000000e+00,5.923401640812664404e-02,0.000000000000000000e+00,0.000000000000000000e+00,4.579801059747035197e+01,3.388518470910316882e+00,-1.223111363073364349e-01,0.000000000000000000e+00,0.000000000000000000e+00,0.000000000000000000e+00,7.113969641520728082e+00,-2.371505738294648058e+00
2.572656249999994652e-03,0.000000000000000000e+00,0.000000000000000000e+00,6.149304350263067043e-02,0.000000000000000000e+00,0.000000000000000000e+00,4.447443660826237277e+01,3.468798110196967155e+00,-1.597085244215031286e-01,0.000000000000000000e+00,0.000000000000000000e+00,0.000000000000000000e+00,7.254955518413463089e+00,-2.418996409274260184e+00
2.622656249999994350e-03,0.000000000000000000e+00,0.000000000000000000e+00,6.365038561884717172e-02,0.000000000000000000e+00,0.000000000000000000e+00,4.147189816535851037e+01,3.749268557337957830e+00,-3.191117534807029754e-01,0.000000000000000000e+00,0.000000000000000000e+00,0.000000000000000000e+00,7.395943909590553034e+00,-2.466581688728019195e+00
2.672656249999994481e-03,0.000000000000000000e+00,0.000000000000000000e+00,6.560327440604674099e-02,0.000000000000000000e+00,0.000000000000000000e+00,3.665623479980545341e+01,3.739095150402717671e+00,-3.247308284535604384e-01,0.000000000000000000e+00,0.000000000000000000e+00,0.000000000000000000e+00,7.536847082071449044e+00,-2.514028346880713194e+00
2.710156249999994254e-03,0.000000000000000000e+00,0.000000000000000000e+00,6.686909802862926744e-02,0.000000000000000000e+00,0.000000000000000000e+00,3.152139170320305439e+01,3.597294632035521023e+00,-2.601762566969536561e-01,0.000000000000000000e+00,0.000000000000000000e+00,0.000000000000000000e+00,7.642526032296816929e+00,-2.549003956262587689e+00
2.760156249999993951e-03,0.000000000000000000e+00,0.000000000000000000e+00,6.823415061053532404e-02,0.000000000000000000e+00,0.000000000000000000e+00,2.317627202535209463e+01,3.360334840929523281e+00,-1.248425121295048124e-01,0.000000000000000000e+00,0.000000000000000000e+00,0.000000000000000000e+00,7.783357460130000405e+00,-2.596213261118377247e+00
2.810156249999993649e-03,0.000000000000000000e+00,0.000000000000000000e+00,6.922400144785849363e-02,0.000000000000000000e+00,0.000000000000000000e+00,1.658348940213432599e+01,3.159258530532275344e+00,-6.729287521790643101e-02,0.000000000000000000e+00,0.000000000000000000e+00,0.000000000000000000e+00,7.924318384458516995e+00,-2.643004255634520128e+00
2.860156249999993346e-03,0.000000000000000000e+00,0.000000000000000000e+00,6.991117016554017349e-02,0.000000000000000000e+00,0.000000000000000000e+00,1.142089797958133524e+01,2.922382360114323951e+00,-3.352215275667261296e-02,0.000000000000000000e+00,0.000000000000000000e+00,0.000000000000000000e+00,8.065868644193674442e+00,-2.689264316972534985e+00
2.910156249999993044e-03,0.000000000000000000e+00,0.000000000000000000e+00,7.039101648662408894e-02,0.000000000000000000e+00,0.000000000000000000e+00,7.331128308260108639e+00,2.680764118716220334e+00,2.581295248250196385e-03,0.000000000000000000e+00,0.000000000000000000e+00,0.000000000000000000e+00,8.206648300750801539e+00,-2.736509133707679897e+00
2.960156249999992741e-03,0.000000000000000000e+00,0.000000000000000000e+00,7.066732528511171507e-02,0.000000000000000000e+00,0.000000000000000000e+00,3.955291389036617478e+00,2.415270353687635652e+00,5.060241209132845808e-02,0.000000000000000000e+00,0.000000000000000000e+00,0.000000000000000000e+00,8.347552542333675163e+00,-2.783579872092935670e+00
3.022656249999992363e-03,0.000000000000000000e+00,0.000000000000000000e+00,7.084692406461909342e-02,0.000000000000000000e+00,0.000000000000000000e+00,2.165210230479217568e+00,2.184647853701579212e+00,3.700407518989228678e-02,0.000000000000000000e+00,0.000000000000000000e+00,0.000000000000000000e+00,8.524022553037619687e+00,-2.842440002347877748e+00
3.072656249999992061e-03,0.000000000000000000e+00,0.000000000000000000e+00,7.095349319782436048e-02,0.000000000000000000e+00,0.000000000000000000e+00,2.294466974413440052e+00,2.065612143902323172e+00,-9.650733782506916783e-03,0.000000000000000000e+00,0.000000000000000000e+00,0.000000000000000000e+00,8.665038590068101954e+00,-2.889303036711074579e+00
3.122656249999991758e-03,0.000000000000000000e+00,0.000000000000000000e+00,7.110549213671112090e-02,0.000000000000000000e+00,0.000000000000000000e+00,3.869247975288719665e+00,1.979102678949431704e+00,-2.557208117968635605e-02,0.000000000000000000e+00,0.000000000000000000e+00,0.000000000000000000e+00,8.806043770424455630e+00,-2.936037388982005503e+00
3.172656249999991455e-03,0.000000000000000000e+00,0.000000000000000000e+00,7.135301049162628972e-02,0.000000000000000000e+00,0.000000000000000000e+00,6.124699084745106603e+00,2.019896792360320603e+00,1.567399216307602608e-02,0.000000000000000000e+00,0.000000000000000000e+00,0.000000000000000000e+00,8.947041640706734356e+00,-2.982825489682594089e+00
3.222656249999991153e-03,0.000000000000000000e+00,0.000000000000000000e+00,7.173160986919702164e-02,0.000000000000000000e+00,0.000000000000000000e+00,9.066154588847009421e+00,2.116405355381466791e+00,1.197064006434785111e-02,0.000000000000000000e+00,0.000000000000000000e+00,0.000000000000000000e+00,9.088034791731596229e+00,-3.029674794413144578e+00
3.272656249999991284e-03,0.000000000000000000e+00,0.000000000000000000e+00,7.226659773402395459e-02,0.000000000000000000e+00,0.000000000000000000e+00,1.232692641000029177e+01,2.226650973691188806e+00,2.789234541389838586e-03,0.000000000000000000e+00,0.000000000000000000e+00,0.000000000000000000e+00,9.228754911172659448e+00,-3.076622777481346382e+00
3.322656249999991415e-03,0.000000000000000000e+00,0.000000000000000000e+00,7.296759309193322218e-02,0.000000000000000000e+00,0.000000000000000000e+00,1.571694846183472016e+01,2.332376632813287998e+00,-2.608878154116174054e-03,0.000000000000000000e+00,0.000000000000000000e+00,0.000000000000000000e+00,9.370018134836596957e+00,-3.123696527936636436e+00
3.372656249999991546e-03,0.000000000000000000e+00,0.000000000000000000e+00,7.383024893501125008e-02,0.000000000000000000e+00,0.000000000000000000e+00,1.878785897948589323e+01,2.407082833341449124e+00,-7.345151169501383699e-03,0.000000000000000000e+00,0.000000000000000000e+00,0.000000000000000000e+00,9.510771035494432368e+00,-3.170838261658979196e+00
3.422656249999991677e-03,0.000000000000000000e+00,0.000000000000000000e+00,7.484440790474007621e-02,0.000000000000000000e+00,0.000000000000000000e+00,2.177991440262558953e+01,2.478667889796474455e+00,-3.882845170181495331e-02,0.000000000000000000e+00,0.000000000000000000e+00,0.000000000000000000e+00,9.652002603142499026e+00,-3.217976879845529936e+00
3.453906249999992573e-03,0.000000000000000000e+00,0.000000000000000000e+00,7.555040292654539857e-02,0.000000000000000000e+00,0.000000000000000000e+00,2.349131901059967831e+01,2.526597935472060907e+00,-6.899220354015805912e-02,0.000000000000000000e+00,0.000000000000000000e+00,0.000000000000000000e+00,9.739806813677146735e+00,-3.247335144918396921e+00
3.510156249999993316e-03,0.000000000000000000e+00,0.000000000000000000e+00,7.693465528942015907e-02,0.000000000000000000e+00,0.000000000000000000e+00,2.552469265556409894e+01,2.629485102424194753e+00,-1.000301209476793518e-01,0.000000000000000000e+00,0.000000000000000000e+00,0.000000000000000000e+00,9.898827852623769630e+00,-3.300327860731725238e+00
3.560156249999993014e-03,0.000000000000000000e+00,0.000000000000000000e+00,7.823763762782709463e-02,0.000000000000000000e+00,0.000000000000000000e+00,2.648028541076370956e+01,2.726717791969908600e+00,-1.043613580764972681e-01,0.000000000000000000e+00,0.000000000000000000e+00,0.000000000000000000e+00,1.003978853586387032e+01,-3.347272014284023989e+00
3.610156249999992711e-03,0.000000000000000000e+00,0.000000000000000000e+00,7.956550904120909817e-02,0.000000000000000000e+00,0.000000000000000000e+00,2.651911143971163298e+01,2.806313062356778687e+00,-9.267500815792012459e-02,0.000000000000000000e+00,0.000000000000000000e+00,0.000000000000000000e+00,1.018075411828238863e+01,-3.394217364422618122e+00
3.660156249999992409e-03,0.000000000000000000e+00,0.000000000000000000e+00,8.087836402863084195e-02,0.000000000000000000e+00,0.000000000000000000e+00,2.592800262881453577e+01,2.875393743005819402e+00,-7.062016922557402820e-02,0.000000000000000000e+00,0.000000000000000000e+00,0.000000000000000000e+00,1.032172647086936301e+01,-3.441255124104938279e+00
3.710156249999992106e-03,0.000000000000000000e+00,0.000000000000000000e+00,8.215130373120844987e-02,0.000000000000000000e+00,0.000000000000000000e+00,2.495441402406096643e+01,2.921277365821169703e+00,-4.134150947818920202e-02,0.000000000000000000e+00,0.000000000000000000e+00,0.000000000000000000e+00,1.046270523236504957e+01,-3.488380174168913328e+00
3.760156249999991804e-03,0.000000000000000000e+00,0.000000000000000000e+00,8.336770382932640056e-02,0.000000000000000000e+00,0.000000000000000000e+00,2.366139083648428354e+01,2.937556269939202380e+00,-1.966900817165131640e-02,0.000000000000000000e+00,0.000000000000000000e+00,0.000000000000000000e+00,1.060368896545742246e+01,-3.535505464823032185e+00
3.810156249999991501e-03,0.000000000000000000e+00,0.000000000000000000e+00,8.451173551845139742e-02,0.000000000000000000e+00,0.000000000000000000e+00,2.207194559668072031e+01,2.923476723350717510e+00,-8.480351499848349031e-03,0.000000000000000000e+00,0.000000000000000000e+00,0.000000000000000000e+00,1.074467654764849378e+01,-3.582549474586668392e+00
3.860156249999991199e-03,0.000000000000000000e+00,0.000000000000000000e+00,8.557316245126911358e-02,0.000000000000000000e+00,0.000000000000000000e+00,2.036668473385308786e+01,2.892962916174237176e+00,-8.193471323719666438e-03,0.000000000000000000e+00,0.000000000000000000e+00,0.000000000000000000e+00,1.088566710351642719e+01,-3.629504945437911800e+00
3.910156249999990896e-03,0.000000000000000000e+00,0.000000000000000000e+00,8.654805947831363533e-02,0.000000000000000000e+00,0.000000000000000000e+00,1.863329841483145444e+01,2.848817278396764241e+00,-1.111404286570011335e-02,0.000000000000000000e+00,0.000000000000000000e+00,0.000000000000000000e+00,1.102662166674005739e+01,-3.676423609085205602e+00
3.960156249999990594e-03,0.000000000000000000e+00,0.000000000000000000e+00,8.744088733342791908e-02,0.000000000000000000e+00,0.000000000000000000e+00,1.707598999039165122e+01,2.800863625282759894e+00,-1.358665854432845356e-02,0.000000000000000000e+00,0.000000000000000000e+00,0.000000000000000000e+00,1.116765330226923858e+01,-3.723354198539145621e+00
4.010156249999990291e-03,0.000000000000000000e+00,0.000000000000000000e+00,8.826408167654345438e-02,0.000000000000000000e+00,0.000000000000000000e+00,1.585296668343337068e+01,2.753645912326086354e+00,-1.398596098328787861e-02,0.000000000000000000e+00,0.000000000000000000e+00,0.000000000000000000e+00,1.130863316210562175e+01,-3.770326761581964892e+00
4.060156249999989989e-03,0.000000000000000000e+00,0.000000000000000000e+00,8.903750686089165201e-02,0.000000000000000000e+00,0.000000000000000000e+00,1.508102209243242875e+01,2.707928566987480856e+00,-1.298146130581822114e-02,0.000000000000000000e+00,0.000000000000000000e+00,0.000000000000000000e+00,1.144964378962167473e+01,-3.817335259514282431e+00
4.110156249999989686e-03,0.000000000000000000e+00,0.000000000000000000e+00,8.978099295333517860e-02,0.000000000000000000e+00,0.000000000000000000e+00,1.465894295198273944e+01,2.662804500145553366e+00,-9.274566054442561283e-03,0.000000000000000000e+00,0.000000000000000000e+00,0.000000000000000000e+00,1.159064097362526802e+01,-3.864349710286835382e+00
4.160156249999989383e-03,0.000000000000000000e+00,0.000000000000000000e+00,9.051763664708384338e-02,0.000000000000000000e+00,0.000000000000000000e+00,1.488613736569053003e+01,2.656938047640557077e+00,-1.496728114150490396e-02,0.000000000000000000e+00,0.000000000000000000e+00,0.000000000000000000e+00,1.173194852663229604e+01,-3.911546594618207084e+00
4.210156249999989081e-03,0.000000000000000000e+00,0.000000000000000000e+00,9.125752411930448948e-02,0.000000000000000000e+00,0.000000000000000000e+00,1.491570798948873211e+01,2.624266251728453181e+00,-2.317348045291389887e-03,0.000000000000000000e+00,0.000000000000000000e+00,0.000000000000000000e+00,1.187313919691098008e+01,-3.958679312161080599e+00
4.260156249999988778e-03,0.000000000000000000e+00,0.000000000000000000e+00,9.201206720957863516e-02,0.000000000000000000e+00,0.000000000000000000e+00,1.538752249164306285e+01,2.567737190357086252e+00,-2.050877598454619449e-02,0.000000000000000000e+00,0.000000000000000000e+00,0.000000000000000000e+00,1.201424629723428872e+01,-4.005525869084062052e+00
4.310156249999988476e-03,0.000000000000000000e+00,0.000000000000000000e+00,9.279379690089292754e-02,0.000000000000000000e+00,0.000000000000000000e+00,1.598361493009399581e+01,2.450802871338450206e+00,-1.138472759346826624e-01,0.000000000000000000e+00,0.000000000000000000e+00,0.000000000000000000e+00,1.215529470098917919e+01,-4.052430307142324217e+00
4.360156249999988173e-03,0.000000000000000000e+00,0.000000000000000000e+00,9.361700940330550114e-02,0.000000000000000000e+00,0.000000000000000000e+00,1.699967813001328665e+01,2.430544715751731033e+00,-1.696481140312709746e-01,0.000000000000000000e+00,0.000000000000000000e+00,0.000000000000000000e+00,1.229630284654921013e+01,-4.099355917279305928e+00
4.410156249999987871e-03,0.000000000000000000e+00,0.000000000000000000e+00,9.449119648650033954e-02,0.000000000000000000e+00,0.000000000000000000e+00,1.801648138456850035e+01,2.452292679881507453e+00,-1.930703116687446375e-01,0.000000000000000000e+00,0.000000000000000000e+00,0.000000000000000000e+00,1.243598835865402563e+01,-4.146217633365226085e+00
4.460156249999987568e-03,0.000000000000000000e+00,0.000000000000000000e+00,9.541697803219179042e-02,0.000000000000000000e+00,0.000000000000000000e+00,1.897963627072948256e+01,2.492670184368449338e+00,-1.940311867813208635e-01,0.000000000000000000e+00,0.000000000000000000e+00,0.000000000000000000e+00,1.257827830496753130e+01,-4.193268702509914014e+00
4.510156249999987266e-03,0.000000000000000000e+00,0.000000000000000000e+00,9.638494196888829080e-02,0.000000000000000000e+00,0.000000000000000000e+00,1.988689299121336518e+01,2.561457017002286118e+00,-1.913346787973871921e-01,0.000000000000000000e+00,0.000000000000000000e+00,0.000000000000000000e+00,1.271955635757426606e+01,-4.240476985121857112e+00
4.560156249999986963e-03,0.000000000000000000e+00,0.000000000000000000e+00,9.739321056448831115e-02,0.000000000000000000e+00,0.000000000000000000e+00,2.054677289798903672e+01,2.597960408724983239e+00,-1.671239408122860426e-01,0.000000000000000000e+00,0.000000000000000000e+00,0.000000000000000000e+00,1.286070572994308137e+01,-4.287693104248716303e+00
4.610156249999986661e-03,0.000000000000000000e+00,0.000000000000000000e+00,9.843139600976054393e-02,0.000000000000000000e+00,0.000000000000000000e+00,2.108937279333465398e+01,2.618605219248511418e+00,-1.506924120006900569e-01,0.000000000000000000e+00,0.000000000000000000e+00,0.000000000000000000e+00,1.300176528286592692e+01,-4.334640105482307604e+00
4.660156249999986358e-03,0.000000000000000000e+00,0.000000000000000000e+00,9.949357666183525351e-02,0.000000000000000000e+00,0.000000000000000000e+00,2.144157406966148827e+01,2.637434565274476839e+00,-1.454021668737620898e-01,0.000000000000000000e+00,0.000000000000000000e+00,0.000000000000000000e+00,1.314276375538964281e+01,-4.381458950893095228e+00
4.710156249999986056e-03,0.000000000000000000e+00,0.000000000000000000e+00,1.005655742665174796e-01,0.000000000000000000e+00,0.000000000000000000e+00,2.151093820347827545e+01,2.654627787912803072e+00,-1.497533116159251720e-01,0.000000000000000000e+00,0.000000000000000000e+00,0.000000000000000000e+00,1.328372220820593164e+01,-4.428343278459449195e+00
4.760156249999985753e-03,0.000000000000000000e+00,0.000000000000000000e+00,1.016384151537142733e-01,0.000000000000000000e+00,0.000000000000000000e+00,2.146858263186044269e+01,2.675163153824634321e+00,-1.423241163962241373e-01,0.000000000000000000e+00,0.000000000000000000e+00,0.000000000000000000e+00,1.342261528768799828e+01,-4.475274806305555408e+00
4.810156249999985451e-03,0.000000000000000000e+00,0.000000000000000000e+00,1.027094203358321634e-01,0.000000000000000000e+00,0.000000000000000000e+00,2.132419622234263912e+01,2.696324004193842327e+00,-1.279129687795831360e-01,0.000000000000000000e+00,0.000000000000000000e+00,0.000000000000000000e+00,1.356561014976433732e+01,-4.522405630008832667e+00
4.860156249999985148e-03,0.000000000000000000e+00,0.000000000000000000e+00,1.037658619474374072e-01,0.000000000000000000e+00,0.000000000000000000e+00,2.096897044667098697e+01,2.706252893525604275e+00,-1.108190778336991533e-01,0.000000000000000000e+00,0.000000000000000000e+00,0.000000000000000000e+00,1.370472600364705507e+01,-4.569394960944455519e+00
4.910156249999984845e-03,0.000000000000000000e+00,0.000000000000000000e+00,1.048066063036711404e-01,0.000000000000000000e+00,0.000000000000000000e+00,2.063488287762175588e+01,2.713775426160987436e+00,-9.925686780264866838e-02,0.000000000000000000e+00,0.000000000000000000e+00,0.000000000000000000e+00,1.384750162837590182e+01,-4.616433873769365981e+00
4.960156249999984543e-03,0.000000000000000000e+00,0.000000000000000000e+00,1.058266668804955651e-01,0.000000000000000000e+00,0.000000000000000000e+00,2.018693655593582648e+01,2.713232583565524436e+00,-9.174882233901968109e-02,0.000000000000000000e+00,0.000000000000000000e+00,0.000000000000000000e+00,1.398683166221858087e+01,-4.663399276279678318e+00
5.010156249999984240e-03,0.000000000000000000e+00,0.000000000000000000e+00,1.068262360257634797e-01,0.000000000000000000e+00,0.000000000000000000e+00,1.978151932226280607e+01,2.711664294065852854e+00,-9.026474842941129006e-02,0.000000000000000000e+00,0.000000000000000000e+00,0.000000000000000000e+00,1.412939934527148367e+01,-4.710420709780490434e+00
5.060156249999983938e-03,0.000000000000000000e+00,0.000000000000000000e+00,1.078030157635996439e-01,0.000000000000000000e+00,0.000000000000000000e+00,1.930043943708927756e+01,2.705481402645704136e+00,-9.063143510157066485e-02,0.000000000000000000e+00,0.000000000000000000e+00,0.000000000000000000e+00,1.426893018836343252e+01,-4.757409358722982873e+00
5.110156249999983635e-03,0.000000000000000000e+00,0.000000000000000000e+00,1.087583826080151389e-01,0.000000000000000000e+00,0.000000000000000000e+00,1.890598767207740849e+01,2.702401582684453629e+00,-9.433985435934214014e-02,0.000000000000000000e+00,0.000000000000000000e+00,0.000000000000000000e+00,1.441130484752524765e+01,-4.804414553986591230e+00
5.160156249999983333e-03,0.000000000000000000e+00,0.000000000000000000e+00,1.096925411957263702e-01,0.000000000000000000e+00,0.000000000000000000e+00,1.846656856743626207e+01,2.692159717316782164e+00,-9.373443988387238079e-02,0.000000000000000000e+00,0.000000000000000000e+00,0.000000000000000000e+00,1.455102047812987642e+01,-4.851381796458221984e+00
5.210156249999983030e-03,0.000000000000000000e+00,0.000000000000000000e+00,1.106086264895548704e-01,0.000000000000000000e+00,0.000000000000000000e+00,1.817163352453822966e+01,2.682026189328401422e+00,-9.205365652591000758e-02,0.000000000000000000e+00,0.000000000000000000e+00,0.000000000000000000e+00,1.469321886912021746e+01,-4.898370017481888716e+00
5.310156249999983293e-03,0.000000000000000000e+00,0.000000000000000000e+00,1.124103509465131379e-01,0.000000000000000000e+00,0.000000000000000000e+00,1.786669233540874657e+01,2.665828948105934959e+00,-8.864809270990542389e-02,0.000000000000000000e+00,0.000000000000000000e+00,0.000000000000000000e+00,1.497413893699581600e+01,-4.992355171031832128e+00
5.410156249999983555e-03,0.000000000000000000e+00,0.000000000000000000e+00,1.142070931957778895e-01,0.000000000000000000e+00,0.000000000000000000e+00,1.806296415911268483e+01,2.658034864915770790e+00,-9.165230862919797328e-02,0.000000000000000000e+00,0.000000000000000000e+00,0.000000000000000000e+00,1.525707528567018123e+01,-5.086359528818593212e+00
5.510156249999983817e-03,0.000000000000000000e+00,0.000000000000000000e+00,1.160377580589147389e-01,0.000000000000000000e+00,0.000000000000000000e+00,1.855270240589461039e+01,2.655951365571803890e+00,-9.780702916531430757e-02,0.000000000000000000e+00,0.000000000000000000e+00,0.000000000000000000e+00,1.553826460307707613e+01,-5.180345116081729095e+00
5.522656249999984175e-03,0.000000000000000000e+00,0.000000000000000000e+00,1.162627388665344874e-01,0.000000000000000000e+00,0.000000000000000000e+00,1.867257402428763768e+01,2.658568471331733907e+00,-1.018322296359580326e-01,0.000000000000000000e+00,0.000000000000000000e+00,0.000000000000000000e+00,1.557418722221012786e+01,-5.191746014831424283e+00
5.560156249999985249e-03,0.000000000000000000e+00,0.000000000000000000e+00,1.169724644182531942e-01,0.000000000000000000e+00,0.000000000000000000e+00,1.884843834012105290e+01,2.649948300978814508e+00,-1.009530768474494328e-01,0.000000000000000000e+00,0.000000000000000000e+00,0.000000000000000000e+00,1.567951587148913539e+01,-5.227361030530715880e+00
5.610156249999986681e-03,0.000000000000000000e+00,0.000000000000000000e+00,1.179120596119321851e-01,0.000000000000000000e+00,0.000000000000000000e+00,1.830610811404027061e+01,2.882679051385342639e+00,-3.170159675575128788e-01,0.000000000000000000e+00,0.000000000000000000e+00,0.000000000000000000e+00,1.582063878855008277e+01,-5.274425860273885824e+00
5.660156249999987246e-03,0.000000000000000000e+00,0.000000000000000000e+00,1.187723789558341181e-01,0.000000000000000000e+00,0.000000000000000000e+00,1.612661153985790818e+01,2.911370505910559459e+00,-3.824847485964736338e-01,0.000000000000000000e+00,0.000000000000000000e+00,0.000000000000000000e+00,1.596158657056245822e+01,-5.321594935457381048e+00
5.710156249999986944e-03,0.000000000000000000e+00,0.000000000000000000e+00,1.195317889189373567e-01,0.000000000000000000e+00,0.000000000000000000e+00,1.453635989563716002e+01,2.787646831995948649e+00,-3.075542841394720006e-01,0.000000000000000000e+00,0.000000000000000000e+00,0.000000000000000000e+00,1.610255435156760484e+01,-5.368880487064596529e+00
5.760156249999986641e-03,0.000000000000000000e+00,0.000000000000000000e+00,1.202438005946287192e-01,0.000000000000000000e+00,0.000000000000000000e+00,1.376439456861048072e+01,2.762379841070621733e+00,-2.177849739709125931e-01,0.000000000000000000e+00,0.000000000000000000e+00,0.000000000000000000e+00,1.624353632715606466e+01,-5.415931666724882021e+00
5.810156249999986339e-03,0.000000000000000000e+00,0.000000000000000000e+00,1.208923721661719630e-01,0.000000000000000000e+00,0.000000000000000000e+00,1.250779850040609986e+01,2.646729402077483417e+00,-1.322504102097257772e-01,0.000000000000000000e+00,0.000000000000000000e+00,0.000000000000000000e+00,1.638452826649190897e+01,-5.462626111394755846e+00
5.860156249999986036e-03,0.000000000000000000e+00,0.000000000000000000e+00,1.215156062434863682e-01,0.000000000000000000e+00,0.000000000000000000e+00,1.264711798714762203e+01,2.520792869799853619e+00,-9.808302933043887284e-02,0.000000000000000000e+00,0.000000000000000000e+00,0.000000000000000000e+00,1.652552703403288703e+01,-5.509233173003602602e+00
5.935156249999985582e-03,0.000000000000000000e+00,0.000000000000000000e+00,1.225295289658542702e-01,0.000000000000000000e+00,0.000000000000000000e+00,1.460668077315529523e+01,2.485042982049896931e+00,-9.146078874379721946e-02,0.000000000000000000e+00,0.000000000000000000e+00,0.000000000000000000e+00,1.673703185826331108e+01,-5.579572744652317340e+00
5.985156249999985280e-03,0.000000000000000000e+00,0.000000000000000000e+00,1.233044433230643111e-01,0.000000000000000000e+00,0.000000000000000000e+00,1.639207950580983564e+01,2.532321668077404109e+00,-9.017054531332470424e-02,0.000000000000000000e+00,0.000000000000000000e+00,0.000000000000000000e+00,1.687824536669039333e+01,-5.626704390542820455e+00
6.035156249999984977e-03,0.000000000000000000e+00,0.000000000000000000e+00,1.241712091276268998e-01,0.000000000000000000e+00,0.000000000000000000e+00,1.827648912905585732e+01,2.589891267980506839e+00,-9.087832606270059010e-02,0.000000000000000000e+00,0.000000000000000000e+00,0.000000000000000000e+00,1.701904019101349874e+01,-5.673834673285229613e+00
6.085156249999984675e-03,0.000000000000000000e+00,0.000000000000000000e+00,1.251262550453510480e-01,0.000000000000000000e+00,0.000000000000000000e+00,1.992796286759215363e+01,2.629039639860874633e+00,-9.720169160633568284e-02,0.000000000000000000e+00,0.000000000000000000e+00,0.000000000000000000e+00,1.716023656540631848e+01,-5.720880576517422433e+00
6.135156249999984372e-03,0.000000000000000000e+00,0.000000000000000000e+00,1.261596315663294221e-01,0.000000000000000000e+00,0.000000000000000000e+00,2.140602566157473774e+01,2.652681038441091488e+00,-1.156357877295877828e-01,0.000000000000000000e+00,0.000000000000000000e+00,0.000000000000000000e+00,1.730104928379718743e+01,-5.767857224716125053e+00
6.185156249999984070e-03,0.000000000000000000e+00,0.000000000000000000e+00,1.272580019220066194e-01,0.000000000000000000e+00,0.000000000000000000e+00,2.253125661791801804e+01,2.671842196117464319e+00,-1.419150206442397200e-01,0.000000000000000000e+00,0.000000000000000000e+00,0.000000000000000000e+00,1.744222732743507365e+01,-5.814839078549170814e+00
6.235156249999983767e-03,0.000000000000000000e+00,0.000000000000000000e+00,1.284053921893698880e-01,0.000000000000000000e+00,0.000000000000000000e+00,2.336395878867019604e+01,2.695461007090205197e+00,-1.692363564044907231e-01,0.000000000000000000e+00,0.000000000000000000e+00,0.000000000000000000e+00,1.758305854699060689e+01,-5.861857466900951330e+00
6.285156249999983465e-03,0.000000000000000000e+00,0.000000000000000000e+00,1.295834394643719800e-01,0.000000000000000000e+00,0.000000000000000000e+00,2.376030750910700462e+01,2.722729549181571507e+00,-1.920473259274140254e-01,0.000000000000000000e+00,0.000000000000000000e+00,0.000000000000000000e+00,1.772421813644437449e+01,-5.908903212927759441e+00
6.335156249999983162e-03,0.000000000000000000e+00,0.000000000000000000e+00,1.307724877493077476e-01,0.000000000000000000e+00,0.000000000000000000e+00,2.380159525542812204e+01,2.744419643475470405e+00,-2.049654572436920563e-01,0.000000000000000000e+00,0.000000000000000000e+00,0.000000000000000000e+00,1.786506758758719471e+01,-5.955947423387973672e+00
6.385156249999982860e-03,0.000000000000000000e+00,0.000000000000000000e+00,1.319539234032391928e-01,0.000000000000000000e+00,0.000000000000000000e+00,2.345769473182906495e+01,2.754308599346505293e+00,-2.127373161052884543e-01,0.000000000000000000e+00,0.000000000000000000e+00,0.000000000000000000e+00,1.800620930807212261e+01,-6.002984307712829981e+00
6.485156249999983122e-03,0.000000000000000000e+00,0.000000000000000000e+00,1.342412423900193885e-01,0.000000000000000000e+00,0.000000000000000000e+00,2.229126503731943387e+01,2.735061639123820942e+00,-2.327719225102380662e-01,0.000000000000000000e+00,0.000000000000000000e+00,0.000000000000000000e+00,1.828808002620509754e+01,-6.097037609777507861e+00
6.585156249999983384e-03,0.000000000000000000e+00,0.000000000000000000e+00,1.363898375342711411e-01,0.000000000000000000e+00,0.000000000000000000e+00,2.068088562103068284e+01,2.713756128252751143e+00,-2.252870910218665590e-01,0.000000000000000000e+00,0.000000000000000000e+00,0.000000000000000000e+00,1.857019406954254492e+01,-6.190989580119916624e+00
6.685156249999983646e-03,0.000000000000000000e+00,0.000000000000000000e+00,1.383727999059191638e-01,0.000000000000000000e+00,0.000000000000000000e+00,1.897862125406690481e+01,2.688643219457510281e+00,-1.998051750342667576e-01,0.000000000000000000e+00,0.000000000000000000e+00,0.000000000000000000e+00,1.885209350984744248e+01,-6.284815581624950909e+00
6.785156249999983909e-03,0.000000000000000000e+00,0.000000000000000000e+00,1.402124297344221615e-01,0.000000000000000000e+00,0.000000000000000000e+00,1.781122744154650661e+01,2.681328954052951907e+00,-1.311356271363815496e-01,0.000000000000000000e+00,0.000000000000000000e+00,0.000000000000000000e+00,1.913418214219503710e+01,-6.378780238148584303e+00
6.835156249999983606e-03,0.000000000000000000e+00,0.000000000000000000e+00,1.410706661261752759e-01,0.000000000000000000e+00,0.000000000000000000e+00,1.799197452312766288e+01,2.749668914715401868e+00,-5.171432440983518564e-02,0.000000000000000000e+00,0.000000000000000000e+00,0.000000000000000000e+00,1.927477513845624557e+01,-6.424702776173282892e+00
6.885156249999983304e-03,0.000000000000000000e+00,0.000000000000000000e+00,1.419930293324637993e-01,0.000000000000000000e+00,0.000000000000000000e+00,1.783236673367337488e+01,2.795937683859706535e+00,-4.559973178937284238e-02,0.000000000000000000e+00,0.000000000000000000e+00,0.000000000000000000e+00,1.941676487185095112e+01,-6.474014519546479995e+00
6.935156249999983001e-03,0.000000000000000000e+00,0.000000000000000000e+00,1.428616898738130081e-01,0.000000000000000000e+00,0.000000000000000000e+00,1.769227933564712529e+01,2.769409022715474844e+00,-4.124528028383656758e-02,0.000000000000000000e+00,0.000000000000000000e+00,0.000000000000000000e+00,1.955631302476834321e+01,-6.520017997274774935e+00
6.985156249999982699e-03,0.000000000000000000e+00,0.000000000000000000e+00,1.437580551604732970e-01,0.000000000000000000e+00,0.000000000000000000e+00,1.759614045777833269e+01,2.735093093971658451e+00,-6.538780502140541240e-02,0.000000000000000000e+00,0.000000000000000000e+00,0.000000000000000000e+00,1.969912466546692542e+01,-6.567314691451792363e+00
7.035156249999982396e-03,0.000000000000000000e+00,0.000000000000000000e+00,1.446328859614646467e-01,0.000000000000000000e+00,0.000000000000000000e+00,1.780739655469422189e+01,2.697747526397757944e+00,-7.999016233056585601e-02,0.000000000000000000e+00,0.000000000000000000e+00,0.000000000000000000e+00,1.983803970834664199e+01,-6.613277251767112119e+00
7.085156249999982093e-03,0.000000000000000000e+00,0.000000000000000000e+00,1.455197048674076732e-01,0.000000000000000000e+00,0.000000000000000000e+00,1.737005938350418432e+01,2.673333777179129456e+00,-9.693999043226189660e-02,0.000000000000000000e+00,0.000000000000000000e+00,0.000000000000000000e+00,1.998132520219765951e+01,-6.660674965283628346e+00
7.135156249999981791e-03,0.000000000000000000e+00,0.000000000000000000e+00,1.463335119787416705e-01,0.000000000000000000e+00,0.000000000000000000e+00,1.540430193971366712e+01,2.630327663759466805e+00,-7.130907462737627600e-02,0.000000000000000000e+00,0.000000000000000000e+00,0.000000000000000000e+00,2.011990012853231491e+01,-6.707550554465658621e+00
7.185156249999981488e-03,0.000000000000000000e+00,0.000000000000000000e+00,1.470594452973885413e-01,0.000000000000000000e+00,0.000000000000000000e+00,1.347136332745442466e+01,2.608588020179483102e+00,-7.693695864714859833e-02,0.000000000000000000e+00,0.000000000000000000e+00,0.000000000000000000e+00,2.026341401111097795e+01,-6.754924091783619744e+00
7.235156249999981186e-03,0.000000000000000000e+00,0.000000000000000000e+00,1.476990262086305128e-01,0.000000000000000000e+00,0.000000000000000000e+00,1.222615887630291276e+01,2.590516192097755965e+00,-8.449169239819032118e-02,0.000000000000000000e+00,0.000000000000000000e+00,0.000000000000000000e+00,2.040185333213866770e+01,-6.801676949107552161e+00
7.285156249999980883e-03,0.000000000000000000e+00,0.000000000000000000e+00,1.483094170605651074e-01,0.000000000000000000e+00,0.000000000000000000e+00,1.210099922300690700e+01,2.577514464325113330e+00,-9.964039641040493833e-02,0.000000000000000000e+00,0.000000000000000000e+00,0.000000000000000000e+00,2.054542630939981507e+01,-6.848664040380396223e+00
7.335156249999980581e-03,0.000000000000000000e+00,0.000000000000000000e+00,1.489132068522354413e-01,0.000000000000000000e+00,0.000000000000000000e+00,1.300001184416457711e+01,2.578870250025455668e+00,-1.045546344764173019e-01,0.000000000000000000e+00,0.000000000000000000e+00,0.000000000000000000e+00,2.068354191083532001e+01,-6.894359482252117033e+00
7.360156249999980430e-03,0.000000000000000000e+00,0.000000000000000000e+00,1.492306162874063591e-01,0.000000000000000000e+00,0.000000000000000000e+00,1.396156725430432211e+01,2.615343060598243063e+00,-1.314430416636623578e-01,0.000000000000000000e+00,0.000000000000000000e+00,0.000000000000000000e+00,2.075698479727250501e+01,-6.917396111783835622e+00
7.385156249999980278e-03,0.000000000000000000e+00,0.000000000000000000e+00,1.495999697931574279e-01,0.000000000000000000e+00,0.000000000000000000e+00,1.444802329230289395e+01,2.652405639653878655e+00,-1.269266763358606054e-01,0.000000000000000000e+00,0.000000000000000000e+00,0.000000000000000000e+00,2.082501607338073413e+01,-6.942968593010016676e+00
7.435156249999979976e-03,0.000000000000000000e+00,0.000000000000000000e+00,1.503530622922224502e-01,0.000000000000000000e+00,0.000000000000000000e+00,1.559296148930926940e+01,2.702338828081696676e+00,-1.557168780207375258e-01,0.000000000000000000e+00,0.000000000000000000e+00,0.000000000000000000e+00,2.096636776774255040e+01,-6.990834799897715612e+00
7.485156249999979673e-03,0.000000000000000000e+00,0.000000000000000000e+00,1.511449142159848602e-01,0.000000000000000000e+00,0.000000000000000000e+00,1.596999581902444021e+01,2.739573538875232916e+00,-2.244012862056879165e-01,0.000000000000000000e+00,0.000000000000000000e+00,0.000000000000000000e+00,2.110762641455969302e+01,-7.037392886857089636e+00
7.535156249999979371e-03,0.000000000000000000e+00,0.000000000000000000e+00,1.519605714278207953e-01,0.000000000000000000e+00,0.000000000000000000e+00,1.670152708505571937e+01,2.680672463713963172e+00,-2.234841258058088698e-01,0.000000000000000000e+00,0.000000000000000000e+00,0.000000000000000000e+00,2.124881467573482752e+01,-7.083661139024215458e+00
7.585156249999979068e-03,0.000000000000000000e+00,0.000000000000000000e+00,1.528252973773788215e-01,0.000000000000000000e+00,0.000000000000000000e+00,1.786624555489242994e+01,2.655339402355591627e+00,-2.119347859345823981e-01,0.000000000000000000e+00,0.000000000000000000e+00,0.000000000000000000e+00,2.138994996065975585e+01,-7.130408910916008480e+00
7.635156249999978766e-03,0.000000000000000000e+00,0.000000000000000000e+00,1.537463717013193010e-01,0.000000000000000000e+00,0.000000000000000000e+00,1.903665330908039977e+01,2.666364074052448796e+00,-2.060316958981055213e-01,0.000000000000000000e+00,0.000000000000000000e+00,0.000000000000000000e+00,2.153122809068569055e+01,-7.177472433276380848e+00
7.685156249999978463e-03,0.000000000000000000e+00,0.000000000000000000e+00,1.547192883152511689e-01,0.000000000000000000e+00,0.000000000000000000e+00,1.983819368652621407e+01,2.681387008591929355e+00,-2.042376571182784317e-01,0.000000000000000000e+00,0.000000000000000000e+00,0.000000000000000000e+00,2.167213762488086104e+01,-7.224814112467065286e+00
7.735156249999978161e-03,0.000000000000000000e+00,0.000000000000000000e+00,1.557274475891307630e-01,0.000000000000000000e+00,0.000000000000000000e+00,2.051916691708190044e+01,2.692539720724385521e+00,-2.085730095100152004e-01,0.000000000000000000e+00,0.000000000000000000e+00,0.000000000000000000e+00,2.181307517800826901e+01,-7.271762882112628112e+00
7.785156249999977858e-03,0.000000000000000000e+00,0.000000000000000000e+00,1.567657140540135996e-01,0.000000000000000000e+00,0.000000000000000000e+00,2.098995940160606821e+01,2.692505709920614443e+00,-2.175793260818720820e-01,0.000000000000000000e+00,0.000000000000000000e+00,0.000000000000000000e+00,2.195426085968060192e+01,-7.318678397006983083e+00
7.835156249999978423e-03,0.000000000000000000e+00,0.000000000000000000e+00,1.578263510542887715e-01,0.000000000000000000e+00,0.000000000000000000e+00,2.145122602522721778e+01,2.690665118101931430e+00,-2.269130981264103897e-01,0.000000000000000000e+00,0.000000000000000000e+00,0.000000000000000000e+00,2.209497721463781517e+01,-7.365515264388313277e+00
7.885156249999978120e-03,0.000000000000000000e+00,0.000000000000000000e+00,1.589065464102717429e-01,0.000000000000000000e+00,0.000000000000000000e+00,2.174596288661049215e+01,2.690923406742861346e+00,-2.391016140976806870e-01,0.000000000000000000e+00,0.000000000000000000e+00,0.000000000000000000e+00,2.223633737356011864e+01,-7.412570633475487725e+00
7.935156249999977818e-03,0.000000000000000000e+00,0.000000000000000000e+00,1.599981469253309585e-01,0.000000000000000000e+00,0.000000000000000000e+00,2.192633243866066195e+01,2.694766275334227412e+00,-2.464002205959427982e-01,0.000000000000000000e+00,0.000000000000000000e+00,0.000000000000000000e+00,2.237691883998472875e+01,-7.459656726519076742e+00
7.985156249999977515e-03,0.000000000000000000e+00,0.000000000000000000e+00,1.610933369064851128e-01,0.000000000000000000e+00,0.000000000000000000e+00,2.187635098513498022e+01,2.699893654936174947e+00,-2.554674220008663621e-01,0.000000000000000000e+00,0.000000000000000000e+00,0.000000000000000000e+00,2.251838047169346879e+01,-7.506767578409099251e+00
8.035156249999977213e-03,0.000000000000000000e+00,0.000000000000000000e+00,1.621821339662614936e-01,0.000000000000000000e+00,0.000000000000000000e+00,2.167980780175861000e+01,2.702448527305025827e+00,-2.605935315438194788e-01,0.000000000000000000e+00,0.000000000000000000e+00,0.000000000000000000e+00,2.265888854681281117e+01,-7.553754469628873203e+00
8.085156249999976910e-03,0.000000000000000000e+00,0.000000000000000000e+00,1.632576764587515550e-01,0.000000000000000000e+00,0.000000000000000000e+00,2.133946980523891312e+01,2.702999277728459049e+00,-2.655697344680223448e-01,0.000000000000000000e+00,0.000000000000000000e+00,0.000000000000000000e+00,2.280040008991418432e+01,-7.600712602198812284e+00
8.185156249999976305e-03,0.000000000000000000e+00,0.000000000000000000e+00,1.653520447232238177e-01,0.000000000000000000e+00,0.000000000000000000e+00,2.055179736230333276e+01,2.697048251387293316e+00,-2.671749753594818699e-01,0.000000000000000000e+00,0.000000000000000000e+00,0.000000000000000000e+00,2.308187308556093953e+01,-7.694643189296002994e+00
8.285156249999975700e-03,0.000000000000000000e+00,0.000000000000000000e+00,1.673696637701530265e-01,0.000000000000000000e+00,0.000000000000000000e+00,1.979758574710159280e+01,2.689604056682190159e+00,-2.679306194446519629e-01,0.000000000000000000e+00,0.000000000000000000e+00,0.000000000000000000e+00,2.336441202940894968e+01,-7.788717611744185199e+00
8.385156249999975095e-03,0.000000000000000000e+00,0.000000000000000000e+00,1.693251866843505371e-01,0.000000000000000000e+00,0.000000000000000000e+00,1.931375906842116308e+01,2.680411015591234403e+00,-2.655587827658746902e-01,0.000000000000000000e+00,0.000000000000000000e+00,0.000000000000000000e+00,2.364586880400883828e+01,-7.882727344785138257e+00
8.485156249999974490e-03,0.000000000000000000e+00,0.000000000000000000e+00,1.712458754094511870e-01,0.000000000000000000e+00,0.000000000000000000e+00,1.909808764386396618e+01,2.674969187225806344e+00,-2.683349573082286499e-01,0.000000000000000000e+00,0.000000000000000000e+00,0.000000000000000000e+00,2.392841006521226888e+01,-7.976682034423038026e+00
8.585156249999973885e-03,0.000000000000000000e+00,0.000000000000000000e+00,1.731627128117540215e-01,0.000000000000000000e+00,0.000000000000000000e+00,1.923835935388624918e+01,2.669509802100671347e+00,-2.703288516632487148e-01,0.000000000000000000e+00,0.000000000000000000e+00,0.000000000000000000e+00,2.420987580762021096e+01,-8.070650009037485972e+00
8.685156249999973280e-03,0.000000000000000000e+00,0.000000000000000000e+00,1.751034920299792685e-01,0.000000000000000000e+00,0.000000000000000000e+00,1.957649722678906201e+01,2.670729715505398616e+00,-2.787376474582638486e-01,0.000000000000000000e+00,0.000000000000000000e+00,0.000000000000000000e+00,2.449239904971109283e+01,-8.164679477976575228e+00
8.697656249999973638e-03,0.000000000000000000e+00,0.000000000000000000e+00,1.753405812017192200e-01,0.000000000000000000e+00,0.000000000000000000e+00,1.965356361804142438e+01,2.669883638648249846e+00,-2.810036542376102009e-01,0.000000000000000000e+00,0.000000000000000000e+00,0.000000000000000000e+00,2.452706233097852717e+01,-8.176080655563000121e+00
8.735156249999969508e-03,0.000000000000000000e+00,0.000000000000000000e+00,1.760829501358721905e-01,0.000000000000000000e+00,0.000000000000000000e+00,2.002066964319866926e+01,2.681380703144733868e+00,-2.776177570934189598e-01,0.000000000000000000e+00,0.000000000000000000e+00,0.000000000000000000e+00,2.463305009604472673e+01,-8.211525954128111593e+00
8.785156249999967470e-03,0.000000000000000000e+00,0.000000000000000000e+00,1.770819794243240208e-01,0.000000000000000000e+00,0.000000000000000000e+00,2.003063432275511246e+01,2.698405195178852800e+00,-2.859283768376145729e-01,0.000000000000000000e+00,0.000000000000000000e+00,0.000000000000000000e+00,2.477415587144531628e+01,-8.258866763051431192e+00
8.835156249999968903e-03,0.000000000000000000e+00,0.000000000000000000e+00,1.780828422339626183e-01,0.000000000000000000e+00,0.000000000000000000e+00,2.008602894627768976e+01,2.691665146884309134e+00,-2.904135888573672886e-01,0.000000000000000000e+00,0.000000000000000000e+00,0.000000000000000000e+00,2.491519474149251323e+01,-8.305878639470236635e+00
8.885156249999970335e-03,0.000000000000000000e+00,0.000000000000000000e+00,1.790889489637325638e-01,0.000000000000000000e+00,0.000000000000000000e+00,2.022992747750064524e+01,2.678516807245758358e+00,-2.940638746532843184e-01,0.000000000000000000e+00,0.000000000000000000e+00,0.000000000000000000e+00,2.505620507356408666e+01,-8.352695882950563089e+00
8.935156249999971767e-03,0.000000000000000000e+00,0.000000000000000000e+00,1.801038993562711632e-01,0.000000000000000000e+00,0.000000000000000000e+00,2.041591247788598906e+01,2.675195949608762724e+00,-2.990385645325452924e-01,0.000000000000000000e+00,0.000000000000000000e+00,0.000000000000000000e+00,2.519720525124918709e+01,-8.399566569185552112e+00
8.985156249999973199e-03,0.000000000000000000e+00,0.000000000000000000e+00,1.811276442849701906e-01,0.000000000000000000e+00,0.000000000000000000e+00,2.057014734745481732e+01,2.679226368192635377e+00,-3.035467220635366115e-01,0.000000000000000000e+00,0.000000000000000000e+00,0.000000000000000000e+00,2.533820303481941849e+01,-8.446573508761405336e+00
9.035156249999974631e-03,0.000000000000000000e+00,0.000000000000000000e+00,1.821577504575689344e-01,0.000000000000000000e+00,0.000000000000000000e+00,2.066669514470279978e+01,2.683075866278085364e+00,-3.070785580386956592e-01,0.000000000000000000e+00,0.000000000000000000e+00,0.000000000000000000e+00,2.547919932762619055e+01,-8.493650376149451731e+00
9.085156249999976064e-03,0.000000000000000000e+00,0.000000000000000000e+00,1.831973741541248202e-01,0.000000000000000000e+00,0.000000000000000000e+00,2.087258324236823981e+01,2.705165751403248553e+00,-3.065405874467089231e-01,0.000000000000000000e+00,0.000000000000000000e+00,0.000000000000000000e+00,2.562044669636293648e+01,-8.540745745942013301e+00
9.135156249999977496e-03,0.000000000000000000e+00,0.000000000000000000e+00,1.842350981228224882e-01,0.000000000000000000e+00,0.000000000000000000e+00,2.076135413420981024e+01,2.689069922680586533e+00,-3.098068065725028131e-01,0.000000000000000000e+00,0.000000000000000000e+00,0.000000000000000000e+00,2.576151698228667541e+01,-8.587851419464202607e+00
9.185156249999978928e-03,0.000000000000000000e+00,0.000000000000000000e+00,1.852697704588163186e-01,0.000000000000000000e+00,0.000000000000000000e+00,2.067411405610091535e+01,2.671050329960577674e+00,-3.178030040730248085e-01,0.000000000000000000e+00,0.000000000000000000e+00,0.000000000000000000e+00,2.590177400380531481e+01,-8.634756301295375636e+00
9.235156249999980360e-03,0.000000000000000000e+00,0.000000000000000000e+00,1.863062312689715838e-01,0.000000000000000000e+00,0.000000000000000000e+00,2.069800216338108356e+01,2.667444798579714949e+00,-3.257631196507939086e-01,0.000000000000000000e+00,0.000000000000000000e+00,0.000000000000000000e+00,2.604279786281819753e+01,-8.681659600880049510e+00
9.285156249999981792e-03,0.000000000000000000e+00,0.000000000000000000e+00,1.873434494032112652e-01,0.000000000000000000e+00,0.000000000000000000e+00,2.070279702188975435e+01,2.672222575122303212e+00,-3.298990390896179292e-01,0.000000000000000000e+00,0.000000000000000000e+00,0.000000000000000000e+00,2.618382589043433128e+01,-8.728615390097587579e+00
9.335156249999983225e-03,0.000000000000000000e+00,0.000000000000000000e+00,1.883795591170961403e-01,0.000000000000000000e+00,0.000000000000000000e+00,2.065769421165758857e+01,2.677538016859003722e+00,-3.322733995931149709e-01,0.000000000000000000e+00,0.000000000000000000e+00,0.000000000000000000e+00,2.632485564127017952e+01,-8.775642896824004779e+00
9.385156249999984657e-03,0.000000000000000000e+00,0.000000000000000000e+00,1.894123465872808720e-01,0.000000000000000000e+00,0.000000000000000000e+00,2.058081369496752444e+01,2.678830567812098717e+00,-3.343711857825661382e-01,0.000000000000000000e+00,0.000000000000000000e+00,0.000000000000000000e+00,2.646588544870516202e+01,-8.822689850982968096e+00
9.460156249999985070e-03,0.000000000000000000e+00,0.000000000000000000e+00,1.909531157647666733e-01,0.000000000000000000e+00,0.000000000000000000e+00,2.044209230623243911e+01,2.676437179132486133e+00,-3.393754875498870560e-01,0.000000000000000000e+00,0.000000000000000000e+00,0.000000000000000000e+00,2.667742721782645177e+01,-8.893208255522662142e+00
9.510156249999984768e-03,0.000000000000000000e+00,0.000000000000000000e+00,1.919754030809016632e-01,0.000000000000000000e+00,0.000000000000000000e+00,2.044455886991572768e+01,2.680324342359138523e+00,-3.407350668974745700e-01,0.000000000000000000e+00,0.000000000000000000e+00,0.000000000000000000e+00,2.681882986265414459e+01,-8.940300004602157458e+00
9.560156249999984465e-03,0.000000000000000000e+00,0.000000000000000000e+00,1.929950096215341526e-01,0.000000000000000000e+00,0.000000000000000000e+00,2.034371811730779100e+01,2.684137420582780376e+00,-3.391818248258773871e-01,0.000000000000000000e+00,0.000000000000000000e+00,0.000000000000000000e+00,2.695947285703266871e+01,-8.987514853555632399e+00
9.610156249999984163e-03,0.000000000000000000e+00,0.000000000000000000e+00,1.940083158171151956e-01,0.000000000000000000e+00,0.000000000000000000e+00,2.018588214710758422e+01,2.687967938744326268e+00,-3.459141556912925242e-01,0.000000000000000000e+00,0.000000000000000000e+00,0.000000000000000000e+00,2.710078932484097081e+01,-9.034384200483181360e+00
9.660156249999983860e-03,0.000000000000000000e+00,0.000000000000000000e+00,1.950164353194167033e-01,0.000000000000000000e+00,0.000000000000000000e+00,2.014028640768461997e+01,2.675601079194664944e+00,-3.478075240893502285e-01,0.000000000000000000e+00,0.000000000000000000e+00,0.000000000000000000e+00,2.724150885734017535e+01,-9.081115404575143657e+00
9.710156249999983558e-03,0.000000000000000000e+00,0.000000000000000000e+00,1.960260763105089454e-01,0.000000000000000000e+00,0.000000000000000000e+00,2.024363081265828512e+01,2.675823780074283231e+00,-3.509711571641306316e-01,0.000000000000000000e+00,0.000000000000000000e+00,0.000000000000000000e+00,2.738275735991723892e+01,-9.128035498341503740e+00
9.760156249999983255e-03,0.000000000000000000e+00,0.000000000000000000e+00,1.970380733134622087e-01,0.000000000000000000e+00,0.000000000000000000e+00,2.023802327814527402e+01,2.676110271044546796e+00,-3.559598808930241609e-01,0.000000000000000000e+00,0.000000000000000000e+00,0.000000000000000000e+00,2.752353723395198770e+01,-9.175102901039570824e+00
9.810156249999982953e-03,0.000000000000000000e+00,0.000000000000000000e+00,1.980519517641599059e-01,0.000000000000000000e+00,0.000000000000000000e+00,2.031542740284675475e+01,2.677371362472316996e+00,-3.633081523483193687e-01,0.000000000000000000e+00,0.000000000000000000e+00,0.000000000000000000e+00,2.766473217360157477e+01,-9.222229834355088585e+00
9.860156249999982650e-03,0.000000000000000000e+00,0.000000000000000000e+00,1.990664531153512606e-01,0.000000000000000000e+00,0.000000000000000000e+00,2.026645846201689238e+01,2.672379362046994444e+00,-3.705917957323002776e-01,0.000000000000000000e+00,0.000000000000000000e+00,0.000000000000000000e+00,2.780555958426602459e+01,-9.269265841927699867e+00
9.910156249999982347e-03,0.000000000000000000e+00,0.000000000000000000e+00,2.000814735673201727e-01,0.000000000000000000e+00,0.000000000000000000e+00,2.033247720573179862e+01,2.674340197623912285e+00,-3.813049213245481850e-01,0.000000000000000000e+00,0.000000000000000000e+00,0.000000000000000000e+00,2.794671234395396553e+01,-9.316231138855634697e+00
1.001015624999998174e-02,0.000000000000000000e+00,0.000000000000000000e+00,2.021154695433730053e-01,0.000000000000000000e+00,0.000000000000000000e+00,2.034904793488227170e+01,2.673607377991636280e+00,-3.895902996044183220e-01,0.000000000000000000e+00,0.000000000000000000e+00,0.000000000000000000e+00,2.822858508311281156e+01,-9.410161795992115330e+00
1.011015624999998114e-02,0.000000000000000000e+00,0.000000000000000000e+00,2.041581651831162469e-01,0.000000000000000000e+00,0.000000000000000000e+00,2.050303962013202153e+01,2.666893391557162207e+00,-3.906355029925779876e-01,0.000000000000000000e+00,0.000000000000000000e+00,0.000000000000000000e+00,2.851068250804311077e+01,-9.504202135219214753e+00
1.021015624999998053e-02,0.000000000000000000e+00,0.000000000000000000e+00,2.062179567712635331e-01,0.000000000000000000e+00,0.000000000000000000e+00,2.069394297909925839e+01,2.664243395735623299e+00,-3.971209201115266096e-01,0.000000000000000000e+00,0.000000000000000000e+00,0.000000000000000000e+00,2.879261022444997664e+01,-9.598232913005498190e+00
1.031015624999997993e-02,0.000000000000000000e+00,0.000000000000000000e+00,2.082974699400361451e-01,0.000000000000000000e+00,0.000000000000000000e+00,2.089543277171714308e+01,2.645301456661237616e+00,-4.171428406334670713e-01,0.000000000000000000e+00,0.000000000000000000e+00,0.000000000000000000e+00,2.907466142072470916e+01,-9.692201704626510761e+00
1.041015624999997932e-02,0.000000000000000000e+00,0.000000000000000000e+00,2.103939428269112344e-01,0.000000000000000000e+00,0.000000000000000000e+00,2.103496694932416489e+01,2.645703024658919489e+00,-4.260848916374705975e-01,0.000000000000000000e+00,0.000000000000000000e+00,0.000000000000000000e+00,2.935662781714061964e+01,-9.786191320746164379e+00
1.046015624999997902e-02,0.000000000000000000e+00,0.000000000000000000e+00,2.114107134722352510e-01,0.000000000000000000e+00,0.000000000000000000e+00,2.137268271120281682e+01,2.680474655647897997e+00,-4.541068799743543938e-01,0.000000000000000000e+00,0.000000000000000000e+00,0.000000000000000000e+00,2.949731504738128152e+01,-9.832050124287086135e+00
1.051015624999997872e-02,0.000000000000000000e+00,0.000000000000000000e+00,2.125121276781209434e-01,0.000000000000000000e+00,0.000000000000000000e+00,2.142212022955207473e+01,2.702783599321920693e+00,-4.282752577117518999e-01,0.000000000000000000e+00,0.000000000000000000e+00,0.000000000000000000e+00,2.963923703907987672e+01,-9.881872295092035685e+00
1.056015624999997841e-02,0.000000000000000000e+00,0.000000000000000000e+00,2.135432363289642699e-01,0.000000000000000000e+00,0.000000000000000000e+00,2.074335750291421476e+01,2.690833218466693655e+00,-4.213480786856112492e-01,0.000000000000000000e+00,0.000000000000000000e+00,0.000000000000000000e+00,2.977883079752595563e+01,-9.927923317300521688e+00
1.061015624999997811e-02,0.000000000000000000e+00,0.000000000000000000e+00,2.145963717148385019e-01,0.000000000000000000e+00,0.000000000000000000e+00,2.070906040175344387e+01,2.637522835935334431e+00,-4.263281945202087031e-01,0.000000000000000000e+00,0.000000000000000000e+00,0.000000000000000000e+00,2.992161521904581178e+01,-9.974828033317930220e+00
1.066015624999997781e-02,0.000000000000000000e+00,0.000000000000000000e+00,2.156220180359205429e-01,0.000000000000000000e+00,0.000000000000000000e+00,2.080561908659890946e+01,2.625684411325416079e+00,-4.332470853909832775e-01,0.000000000000000000e+00,0.000000000000000000e+00,0.000000000000000000e+00,3.006054231597037685e+01,-1.002049243918197519e+01
1.071015624999997751e-02,0.000000000000000000e+00,0.000000000000000000e+00,2.166727220083713712e-01,0.000000000000000000e+00,0.000000000000000000e+00,2.086719689671844691e+01,2.639716321603864380e+00,-4.468898470889942076e-01,0.000000000000000000e+00,0.000000000000000000e+00,0.000000000000000000e+00,3.020382816007420601e+01,-1.006781439004942236e+01
1.076015624999997720e-02,0.000000000000000000e+00,0.000000000000000000e+00,2.177108305279676359e-01,0.000000000000000000e+00,0.000000000000000000e+00,2.091563795311720497e+01,2.666303997358951960e+00,-4.449585586849907903e-01,0.000000000000000000e+00,0.000000000000000000e+00,0.000000000000000000e+00,3.034239269217769319e+01,-1.011493028047472720e+01
1.081015624999997690e-02,0.000000000000000000e+00,0.000000000000000000e+00,2.187573808148821075e-01,0.000000000000000000e+00,0.000000000000000000e+00,2.075935736849223190e+01,2.676776258609534942e+00,-4.486631810233212558e-01,0.000000000000000000e+00,0.000000000000000000e+00,0.000000000000000000e+00,3.048592500066856914e+01,-1.016255414308706584e+01
1.083515624999997762e-02,0.000000000000000000e+00,0.000000000000000000e+00,2.192573400681331885e-01,0.000000000000000000e+00,0.000000000000000000e+00,2.085420463163438853e+01,2.683911346976129320e+00,-4.580311366988543131e-01,0.000000000000000000e+00,0.000000000000000000e+00,0.000000000000000000e+00,3.055369804747789786e+01,-1.018534904184871515e+01
1.086015624999997833e-02,0.000000000000000000e+00,0.000000000000000000e+00,2.197915573302460790e-01,0.000000000000000000e+00,0.000000000000000000e+00,2.070845715202511172e+01,2.692103633933915496e+00,-4.592145683381055887e-01,0.000000000000000000e+00,0.000000000000000000e+00,0.000000000000000000e+00,3.062719692025324392e+01,-1.020970186707213934e+01
1.091015624999997977e-02,0.000000000000000000e+00,0.000000000000000000e+00,2.208264018262013628e-01,0.000000000000000000e+00,0.000000000000000000e+00,2.075171057643070327e+01,2.679473086947117721e+00,-4.434709650701285644e-01,0.000000000000000000e+00,0.000000000000000000e+00,0.000000000000000000e+00,3.076831914443362948e+01,-1.025664123919827198e+01
1.096015624999998120e-02,0.000000000000000000e+00,0.000000000000000000e+00,2.218613159047300998e-01,0.000000000000000000e+00,0.000000000000000000e+00,2.078195264697313149e+01,2.660287633457794954e+00,-4.499241757581448620e-01,0.000000000000000000e+00,0.000000000000000000e+00,0.000000000000000000e+00,3.090933874116950619e+01,-1.030338722188416511e+01
1.101015624999998263e-02,0.000000000000000000e+00,0.000000000000000000e+00,2.228988434683414621e-01,0.000000000000000000e+00,0.000000000000000000e+00,2.088664658303475719e+01,2.654949041496184936e+00,-4.597082165952626198e-01,0.000000000000000000e+00,0.000000000000000000e+00,0.000000000000000000e+00,3.105029029659597484e+01,-1.035017308737793051e+01
1.106015624999998406e-02,0.000000000000000000e+00,0.000000000000000000e+00,2.238890328669348451e-01,0.000000000000000000e+00,0.000000000000000000e+00,1.818405101771242016e+01,3.093842131674321649e+00,-9.452790557575141417e-01,0.000000000000000000e+00,0.000000000000000000e+00,0.000000000000000000e+00,3.119119895896421824e+01,-1.039725805922821245e+01
1.111015624999998376e-02,0.000000000000000000e+00,0.000000000000000000e+00,2.246574662265865829e-01,0.000000000000000000e+00,0.000000000000000000e+00,1.263692975891859760e+01,3.052803477148463784e+00,-9.600300047107913626e-01,0.000000000000000000e+00,0.000000000000000000e+00,0.000000000000000000e+00,3.132918627618313678e+01,-1.044480734490683993e+01
1.116015624999998346e-02,0.000000000000000000e+00,0.000000000000000000e+00,2.252004076621831330e-01,0.000000000000000000e+00,0.000000000000000000e+00,9.010703043370867249e+00,2.875289063465890305e+00,-8.039162223623633752e-01,0.000000000000000000e+00,0.000000000000000000e+00,0.000000000000000000e+00,3.147299620235639139e+01,-1.049245844487701440e+01
1.121015624999998316e-02,0.000000000000000000e+00,0.000000000000000000e+00,2.255971169541142463e-01,0.000000000000000000e+00,0.000000000000000000e+00,6.901337920411653393e+00,2.685666659948804824e+00,-6.347952441442603622e-01,0.000000000000000000e+00,0.000000000000000000e+00,0.000000000000000000e+00,3.161137860829798640e+01,-1.053935103245664706e+01
1.126015624999998285e-02,0.000000000000000000e+00,0.000000000000000000e+00,2.259436888446482161e-01,0.000000000000000000e+00,0.000000000000000000e+00,6.919598194007718028e+00,2.561367027929812412e+00,-5.300267657888219075e-01,0.000000000000000000e+00,0.000000000000000000e+00,0.000000000000000000e+00,3.175481423740588482e+01,-1.058576297556590617e+01
1.131015624999998255e-02,0.000000000000000000e+00,0.000000000000000000e+00,2.263176786813693164e-01,0.000000000000000000e+00,0.000000000000000000e+00,8.065103218872218704e+00,2.451250328050400551e+00,-4.693772295023500019e-01,0.000000000000000000e+00,0.000000000000000000e+00,0.000000000000000000e+00,3.189355035619896128e+01,-1.063212315314445000e+01
1.136015624999998225e-02,0.000000000000000000e+00,0.000000000000000000e+00,2.267881348366795891e-01,0.000000000000000000e+00,0.000000000000000000e+00,1.072762422095316204e+01,2.390786399574603038e+00,-4.765327568241898848e-01,0.000000000000000000e+00,0.000000000000000000e+00,0.000000000000000000e+00,3.203665248279132527e+01,-1.067897001903297749e+01
1.141015624999998194e-02,0.000000000000000000e+00,0.000000000000000000e+00,2.274015153123497002e-01,0.000000000000000000e+00,0.000000000000000000e+00,1.382407768132942216e+01,2.389064313165055076e+00,-4.589845258181359244e-01,0.000000000000000000e+00,0.000000000000000000e+00,0.000000000000000000e+00,3.217570239870246240e+01,-1.072610788487634004e+01
1.146015624999998164e-02,0.000000000000000000e+00,0.000000000000000000e+00,2.281871531075542747e-01,0.000000000000000000e+00,0.000000000000000000e+00,1.758626126943341461e+01,2.432730604718114975e+00,-4.712786415425411768e-01,0.000000000000000000e+00,0.000000000000000000e+00,0.000000000000000000e+00,3.231850982752404633e+01,-1.077329780395974446e+01
1.151015624999998134e-02,0.000000000000000000e+00,0.000000000000000000e+00,2.291468232435038832e-01,0.000000000000000000e+00,0.000000000000000000e+00,2.081413547815333231e+01,2.483009215367549594e+00,-4.778598851262999547e-01,0.000000000000000000e+00,0.000000000000000000e+00,0.000000000000000000e+00,3.245783602375603039e+01,-1.082033410931300743e+01
1.156015624999998104e-02,0.000000000000000000e+00,0.000000000000000000e+00,2.302675724778355804e-01,0.000000000000000000e+00,0.000000000000000000e+00,2.400612102240926404e+01,2.550554737633344171e+00,-5.082753543065542390e-01,0.000000000000000000e+00,0.000000000000000000e+00,0.000000000000000000e+00,3.260038485319426371e+01,-1.086727079012616848e+01
1.166015624999998043e-02,0.000000000000000000e+00,0.000000000000000000e+00,2.328556713847790005e-01,0.000000000000000000e+00,0.000000000000000000e+00,2.776023143122655412e+01,2.656812536088803078e+00,-5.534181544469606306e-01,0.000000000000000000e+00,0.000000000000000000e+00,0.000000000000000000e+00,3.288100536457003642e+01,-1.096124154299598175e+01
1.176015624999997983e-02,0.000000000000000000e+00,0.000000000000000000e+00,2.356736857054310408e-01,0.000000000000000000e+00,0.000000000000000000e+00,2.861076636759296932e+01,2.742992087683838953e+00,-6.055571139642457190e-01,0.000000000000000000e+00,0.000000000000000000e+00,0.000000000000000000e+00,3.316418126893537277e+01,-1.105545343401003677e+01
1.186015624999997922e-02,0.000000000000000000e+00,0.000000000000000000e+00,2.383793911608333982e-01,0.000000000000000000e+00,0.000000000000000000e+00,2.551443715914611232e+01,2.741262108494775251e+00,-6.011939681910086763e-01,0.000000000000000000e+00,0.000000000000000000e+00,0.000000000000000000e+00,3.344518202686363395e+01,-1.114957802395204745e+01
1.196015624999997862e-02,0.000000000000000000e+00,0.000000000000000000e+00,2.403972890006412233e-01,0.000000000000000000e+00,0.000000000000000000e+00,1.487155885926133614e+01,2.601666719123225224e+00,-4.818909871810891921e-01,0.000000000000000000e+00,0.000000000000000000e+00,0.000000000000000000e+00,3.372802818005744996e+01,-1.124330120877139016e+01
1.201015624999997831e-02,0.000000000000000000e+00,0.000000000000000000e+00,2.409605428011470929e-01,0.000000000000000000e+00,0.000000000000000000e+00,8.967760921405306007e+00,2.551400218709850787e+00,-4.487711187630126219e-01,0.000000000000000000e+00,0.000000000000000000e+00,0.000000000000000000e+00,3.386802379719684097e+01,-1.128912224073045500e+01
1.206015624999997801e-02,0.000000000000000000e+00,0.000000000000000000e+00,2.413538142818760779e-01,0.000000000000000000e+00,0.000000000000000000e+00,5.797895284373053570e+00,2.553909064451881594e+00,-4.155137269180187998e-01,0.000000000000000000e+00,0.000000000000000000e+00,0.000000000000000000e+00,3.401043699544800347e+01,-1.133834524363446228e+01
1.211015624999997771e-02,0.000000000000000000e+00,0.000000000000000000e+00,2.416159335401518171e-01,0.000000000000000000e+00,0.000000000000000000e+00,5.375694161678072014e+00,2.500168527610725278e+00,-4.143298780352056010e-01,0.000000000000000000e+00,0.000000000000000000e+00,0.000000000000000000e+00,3.414970678871233645e+01,-1.138429148839870031e+01
1.213515624999997843e-02,0.000000000000000000e+00,0.000000000000000000e+00,2.417498895467607434e-01,0.000000000000000000e+00,0.000000000000000000e+00,6.147170578855224221e+00,2.477326501444826246e+00,-4.349133888943020332e-01,0.000000000000000000e+00,0.000000000000000000e+00,0.000000000000000000e+00,3.422184084245537861e+01,-1.140671248570381735e+01
1.216015624999997914e-02,0.000000000000000000e+00,0.000000000000000000e+00,2.419201750982326038e-01,0.000000000000000000e+00,0.000000000000000000e+00,6.889352459182956245e+00,2.467185657088222683e+00,-4.063723944032145430e-01,0.000000000000000000e+00,0.000000000000000000e+00,0.000000000000000000e+00,3.429113664097703662e+01,-1.143128747594661476e+01
1.221015624999998057e-02,0.000000000000000000e+00,0.000000000000000000e+00,2.423390984339089393e-01,0.000000000000000000e+00,0.000000000000000000e+00,9.804468644643311137e+00,2.471842935403242514e+00,-4.088277028397053203e-01,0.000000000000000000e+00,0.000000000000000000e+00,0.000000000000000000e+00,3.443243686087055977e+01,-1.147839693384741899e+01
1.226015624999998201e-02,0.000000000000000000e+00,0.000000000000000000e+00,2.429262831827378455e-01,0.000000000000000000e+00,0.000000000000000000e+00,1.356126158751177790e+01,2.468770120826521808e+00,-4.293489228202317931e-01,0.000000000000000000e+00,0.000000000000000000e+00,0.000000000000000000e+00,3.457364119102449962e+01,-1.152526732074910143e+01
1.231015624999998344e-02,0.000000000000000000e+00,0.000000000000000000e+00,2.437130432098526811e-01,0.000000000000000000e+00,0.000000000000000000e+00,1.772240608461737210e+01,2.489210041853653799e+00,-4.562138278699759408e-01,0.000000000000000000e+00,0.000000000000000000e+00,0.000000000000000000e+00,3.471477523160817213e+01,-1.157199287758191630e+01
1.236015624999998487e-02,0.000000000000000000e+00,0.000000000000000000e+00,2.447052992321185894e-01,0.000000000000000000e+00,0.000000000000000000e+00,2.175151905885449111e+01,2.535650328740595594e+00,-4.890483742159991709e-01,0.000000000000000000e+00,0.000000000000000000e+00,0.000000000000000000e+00,3.485585831633679277e+01,-1.161881944003628497e+01
1.241015624999998457e-02,0.000000000000000000e+00,0.000000000000000000e+00,2.458816936065107706e-01,0.000000000000000000e+00,0.000000000000000000e+00,2.532389712290795103e+01,2.594346199390528795e+00,-5.231242491200377431e-01,0.000000000000000000e+00,0.000000000000000000e+00,0.000000000000000000e+00,3.499636758948737025e+01,-1.166576257461034771e+01
1.246015624999998427e-02,0.000000000000000000e+00,0.000000000000000000e+00,2.472054974798766347e-01,0.000000000000000000e+00,0.000000000000000000e+00,2.762007949768980097e+01,2.653528701895636832e+00,-5.612229789124627555e-01,0.000000000000000000e+00,0.000000000000000000e+00,0.000000000000000000e+00,3.513795575893990275e+01,-1.171297852757682278e+01
1.251015624999998396e-02,0.000000000000000000e+00,0.000000000000000000e+00,2.486240605723600006e-01,0.000000000000000000e+00,0.000000000000000000e+00,2.913214382737986341e+01,2.702526040994704282e+00,-5.928287077023898233e-01,0.000000000000000000e+00,0.000000000000000000e+00,0.000000000000000000e+00,3.527829454267367737e+01,-1.175996296567201505e+01
1.256015624999998366e-02,0.000000000000000000e+00,0.000000000000000000e+00,2.500874189523150659e-01,0.000000000000000000e+00,0.000000000000000000e+00,2.940108505498519165e+01,2.735340782608711940e+00,-6.252422765435573515e-01,0.000000000000000000e+00,0.000000000000000000e+00,0.000000000000000000e+00,3.542000831469622568e+01,-1.180699109967201643e+01
1.261015624999998336e-02,0.000000000000000000e+00,0.000000000000000000e+00,2.515476480105277579e-01,0.000000000000000000e+00,0.000000000000000000e+00,2.901203017359872760e+01,2.750169817803910455e+00,-6.446470196807810860e-01,0.000000000000000000e+00,0.000000000000000000e+00,0.000000000000000000e+00,3.556025911023036912e+01,-1.185395529547382942e+01
1.266015624999998306e-02,0.000000000000000000e+00,0.000000000000000000e+00,2.529667687202002413e-01,0.000000000000000000e+00,0.000000000000000000e+00,2.775408076695523363e+01,2.756583429991972256e+00,-6.649057234806259320e-01,0.000000000000000000e+00,0.000000000000000000e+00,0.000000000000000000e+00,3.570202952292987675e+01,-1.190105795378187992e+01
1.271015624999998449e-02,0.000000000000000000e+00,0.000000000000000000e+00,2.543138675706458351e-01,0.000000000000000000e+00,0.000000000000000000e+00,2.629265703618222005e+01,2.775546746982394453e+00,-6.916896507991810994e-01,0.000000000000000000e+00,0.000000000000000000e+00,0.000000000000000000e+00,3.584336383756451028e+01,-1.194849485448179927e+01
1.276015624999998592e-02,0.000000000000000000e+00,0.000000000000000000e+00,2.555737780758491895e-01,0.000000000000000000e+00,0.000000000000000000e+00,2.422800492157882957e+01,2.754949098222464254e+00,-6.771810554191757259e-01,0.000000000000000000e+00,0.000000000000000000e+00,0.000000000000000000e+00,3.598455707341555154e+01,-1.199584227839890183e+01
1.281015624999998735e-02,0.000000000000000000e+00,0.000000000000000000e+00,2.567334375855946371e-01,0.000000000000000000e+00,0.000000000000000000e+00,2.228140846573238321e+01,2.715919984879847426e+00,-6.683290129275237801e-01,0.000000000000000000e+00,0.000000000000000000e+00,0.000000000000000000e+00,3.612565077167467109e+01,-1.204263589376855847e+01
1.286015624999998878e-02,0.000000000000000000e+00,0.000000000000000000e+00,2.577977874260624636e-01,0.000000000000000000e+00,0.000000000000000000e+00,2.050698891176273975e+01,2.733240845016510434e+00,-6.127804061704676952e-01,0.000000000000000000e+00,0.000000000000000000e+00,0.000000000000000000e+00,3.626667578080842702e+01,-1.208922059114030922e+01
1.291015624999999022e-02,0.000000000000000000e+00,0.000000000000000000e+00,2.587824652624524657e-01,0.000000000000000000e+00,0.000000000000000000e+00,1.917049844393793379e+01,2.733595687869121438e+00,-5.984015055204662259e-01,0.000000000000000000e+00,0.000000000000000000e+00,0.000000000000000000e+00,3.640765482017796018e+01,-1.213599982072713424e+01
1.296015624999998991e-02,0.000000000000000000e+00,0.000000000000000000e+00,2.597075145814090047e-01,0.000000000000000000e+00,0.000000000000000000e+00,1.793386964738765954e+01,2.714647592101410822e+00,-5.810704103243059526e-01,0.000000000000000000e+00,0.000000000000000000e+00,0.000000000000000000e+00,3.654666605080691255e+01,-1.218298440075268196e+01
1.301015624999998961e-02,0.000000000000000000e+00,0.000000000000000000e+00,2.605986829193073229e-01,0.000000000000000000e+00,0.000000000000000000e+00,1.763391285119789131e+01,2.709395683348092110e+00,-5.913831385596082235e-01,0.000000000000000000e+00,0.000000000000000000e+00,0.000000000000000000e+00,3.668957336045131257e+01,-1.223022464179734747e+01
1.306015624999998931e-02,0.000000000000000000e+00,0.000000000000000000e+00,2.614689833324677082e-01,0.000000000000000000e+00,0.000000000000000000e+00,1.723599132767742859e+01,2.670934277493032472e+00,-5.807497952401995400e-01,0.000000000000000000e+00,0.000000000000000000e+00,0.000000000000000000e+00,3.682875110628271642e+01,-1.227724803639958395e+01
1.311015624999998901e-02,0.000000000000000000e+00,0.000000000000000000e+00,2.623461170145864330e-01,0.000000000000000000e+00,0.000000000000000000e+00,1.780264067456432997e+01,2.656876606280549780e+00,-5.977919173423420496e-01,0.000000000000000000e+00,0.000000000000000000e+00,0.000000000000000000e+00,3.697148624297443575e+01,-1.232420779828046165e+01
1.316015624999998870e-02,0.000000000000000000e+00,0.000000000000000000e+00,2.632446300307433873e-01,0.000000000000000000e+00,0.000000000000000000e+00,1.817279489071865939e+01,2.626981418309115579e+00,-5.943686562754372238e-01,0.000000000000000000e+00,0.000000000000000000e+00,0.000000000000000000e+00,3.711083902280762459e+01,-1.237103710272509360e+01
1.321015624999998840e-02,0.000000000000000000e+00,0.000000000000000000e+00,2.641831081684423710e-01,0.000000000000000000e+00,0.000000000000000000e+00,1.933713800200595756e+01,2.631392517832887190e+00,-6.160487211218306225e-01,0.000000000000000000e+00,0.000000000000000000e+00,0.000000000000000000e+00,3.725339855838826253e+01,-1.241796970308078230e+01
1.326015624999998810e-02,0.000000000000000000e+00,0.000000000000000000e+00,2.651673845901626470e-01,0.000000000000000000e+00,0.000000000000000000e+00,2.005727524662653494e+01,2.620828588194132003e+00,-6.170439715096974753e-01,0.000000000000000000e+00,0.000000000000000000e+00,0.000000000000000000e+00,3.739292564267676511e+01,-1.246495376922578657e+01
1.331015624999998780e-02,0.000000000000000000e+00,0.000000000000000000e+00,2.662023060718485268e-01,0.000000000000000000e+00,0.000000000000000000e+00,2.132000144336886649e+01,2.636166915838345393e+00,-6.403940324367993764e-01,0.000000000000000000e+00,0.000000000000000000e+00,0.000000000000000000e+00,3.753531366713531270e+01,-1.251201864827633692e+01
1.336015624999998749e-02,0.000000000000000000e+00,0.000000000000000000e+00,2.672832562130093570e-01,0.000000000000000000e+00,0.000000000000000000e+00,2.193534360881637824e+01,2.631038828040086930e+00,-6.442320510848552617e-01,0.000000000000000000e+00,0.000000000000000000e+00,0.000000000000000000e+00,3.767500828483473896e+01,-1.255904739200840226e+01
1.341015624999998719e-02,0.000000000000000000e+00,0.000000000000000000e+00,2.684049854673404845e-01,0.000000000000000000e+00,0.000000000000000000e+00,2.291945165745637780e+01,2.646776738941774454e+00,-6.678937772907533876e-01,0.000000000000000000e+00,0.000000000000000000e+00,0.000000000000000000e+00,3.781723367316607209e+01,-1.260605868670430674e+01
1.346015624999998689e-02,0.000000000000000000e+00,0.000000000000000000e+00,2.695567845420586139e-01,0.000000000000000000e+00,0.000000000000000000e+00,2.316649244667355489e+01,2.643427551000861353e+00,-6.728441642448623750e-01,0.000000000000000000e+00,0.000000000000000000e+00,0.000000000000000000e+00,3.795708533383563577e+01,-1.265303607564053934e+01
1.351015624999998659e-02,0.000000000000000000e+00,0.000000000000000000e+00,2.707285679949003043e-01,0.000000000000000000e+00,0.000000000000000000e+00,2.369333880045761020e+01,2.658912105888278532e+00,-6.942134104265089700e-01,0.000000000000000000e+00,0.000000000000000000e+00,0.000000000000000000e+00,3.809915978008228166e+01,-1.270003863516316400e+01
1.356015624999998628e-02,0.000000000000000000e+00,0.000000000000000000e+00,2.719078984887973172e-01,0.000000000000000000e+00,0.000000000000000000e+00,2.349173499310120761e+01,2.655691467537804495e+00,-6.974256896449174681e-01,0.000000000000000000e+00,0.000000000000000000e+00,0.000000000000000000e+00,3.823915593169578386e+01,-1.274705553695952531e+01
1.366015624999998568e-02,0.000000000000000000e+00,0.000000000000000000e+00,2.742477104954093026e-01,0.000000000000000000e+00,0.000000000000000000e+00,2.329585662637534327e+01,2.667409676228750470e+00,-7.211335889401593313e-01,0.000000000000000000e+00,0.000000000000000000e+00,0.000000000000000000e+00,3.852206221982405054e+01,-1.284111727327113428e+01
1.366640624999998499e-02,0.000000000000000000e+00,0.000000000000000000e+00,2.743897243199424629e-01,0.000000000000000000e+00,0.000000000000000000e+00,2.295449959366978732e+01,2.663083806706677326e+00,-7.191404382916811722e-01,0.000000000000000000e+00,0.000000000000000000e+00,0.000000000000000000e+00,3.853883381570766886e+01,-1.284689985629059272e+01
1.371015624999998017e-02,0.000000000000000000e+00,0.000000000000000000e+00,2.753950278697536724e-01,0.000000000000000000e+00,0.000000000000000000e+00,2.250312281226122124e+01,2.655890142549340194e+00,-7.196823660944459133e-01,0.000000000000000000e+00,0.000000000000000000e+00,0.000000000000000000e+00,3.866302251006055712e+01,-1.288813031853604762e+01
1.376015624999997466e-02,0.000000000000000000e+00,0.000000000000000000e+00,2.765173228649207005e-01,0.000000000000000000e+00,0.000000000000000000e+00,2.203179623665155162e+01,2.658309031074041595e+00,-7.298315230778440466e-01,0.000000000000000000e+00,0.000000000000000000e+00,0.000000000000000000e+00,3.880389128063178816e+01,-1.293517599710850874e+01
1.381015624999997263e-02,0.000000000000000000e+00,0.000000000000000000e+00,2.776138318058715693e-01,0.000000000000000000e+00,0.000000000000000000e+00,2.160026537842336936e+01,2.651684971279544278e+00,-7.318346167988409867e-01,0.000000000000000000e+00,0.000000000000000000e+00,0.000000000000000000e+00,3.894478671819732796e+01,-1.298217962020339478e+01
1.386015624999997406e-02,0.000000000000000000e+00,0.000000000000000000e+00,2.786889296648858982e-01,0.000000000000000000e+00,0.000000000000000000e+00,2.126573802612090347e+01,2.642481652402652870e+00,-7.327906644325049568e-01,0.000000000000000000e+00,0.000000000000000000e+00,0.000000000000000000e+00,3.908572330450173382e+01,-1.302915570874966100e+01
1.391015624999997549e-02,0.000000000000000000e+00,0.000000000000000000e+00,2.797477802001396285e-01,0.000000000000000000e+00,0.000000000000000000e+00,2.101953020334168087e+01,2.635237099238258107e+00,-7.333798460964887633e-01,0.000000000000000000e+00,0.000000000000000000e+00,0.000000000000000000e+00,3.922668622869921506e+01,-1.307613433523748192e+01
1.396015624999997692e-02,0.000000000000000000e+00,0.000000000000000000e+00,2.807967316782989387e-01,0.000000000000000000e+00,0.000000000000000000e+00,2.089379505573437257e+01,2.630096696256307265e+00,-7.340943760319649236e-01,0.000000000000000000e+00,0.000000000000000000e+00,0.000000000000000000e+00,3.936766276548659960e+01,-1.312312823831477004e+01
1.401015624999997836e-02,0.000000000000000000e+00,0.000000000000000000e+00,2.818423742176213165e-01,0.000000000000000000e+00,0.000000000000000000e+00,2.089987401165137015e+01,2.625705901582436219e+00,-7.359225854863893357e-01,0.000000000000000000e+00,0.000000000000000000e+00,0.000000000000000000e+00,3.950864657200499863e+01,-1.317013097040562641e+01
1.406015624999997979e-02,0.000000000000000000e+00,0.000000000000000000e+00,2.828907956545490543e-01,0.000000000000000000e+00,0.000000000000000000e+00,2.101807234977832906e+01,2.621986470493067767e+00,-7.390623675197797171e-01,0.000000000000000000e+00,0.000000000000000000e+00,0.000000000000000000e+00,3.964963573276683917e+01,-1.321713036439349764e+01
1.411015624999998122e-02,0.000000000000000000e+00,0.000000000000000000e+00,2.839470197835229914e-01,0.000000000000000000e+00,0.000000000000000000e+00,2.122216454732365776e+01,2.620057196223182672e+00,-7.438373339392494454e-01,0.000000000000000000e+00,0.000000000000000000e+00,0.000000000000000000e+00,3.979062879775654693e+01,-1.326412251373360185e+01
1.416015624999998265e-02,0.000000000000000000e+00,0.000000000000000000e+00,2.850145202466038974e-01,0.000000000000000000e+00,0.000000000000000000e+00,2.147770404007309253e+01,2.619326902851540684e+00,-7.493570567841277841e-01,0.000000000000000000e+00,0.000000000000000000e+00,0.000000000000000000e+00,3.993162467466562759e+01,-1.331111320439627477e+01
1.421015624999998235e-02,0.000000000000000000e+00,0.000000000000000000e+00,2.860954497968269949e-01,0.000000000000000000e+00,0.000000000000000000e+00,2.175817124918049572e+01,2.619282271762037428e+00,-7.549200570006824318e-01,0.000000000000000000e+00,0.000000000000000000e+00,0.000000000000000000e+00,4.007265919826296141e+01,-1.335810875467380043e+01
1.426015624999998205e-02,0.000000000000000000e+00,0.000000000000000000e+00,2.871896679752461434e-01,0.000000000000000000e+00,0.000000000000000000e+00,2.201163543025302971e+01,2.621156561874743662e+00,-7.623222806238126870e-01,0.000000000000000000e+00,0.000000000000000000e+00,0.000000000000000000e+00,4.021362011289625116e+01,-1.340510954493608153e+01
1.431015624999998175e-02,0.000000000000000000e+00,0.000000000000000000e+00,2.879362508877592042e-01,0.000000000000000000e+00,0.000000000000000000e+00,7.919535013390493816e+00,2.329019213041894965e+00,-5.290843691939459692e-01,0.000000000000000000e+00,0.000000000000000000e+00,0.000000000000000000e+00,4.035466250244142827e+01,-1.345174235632428861e+01
1.436015624999998144e-02,0.000000000000000000e+00,0.000000000000000000e+00,2.880262632977948489e-01,0.000000000000000000e+00,0.000000000000000000e+00,-4.376978260279146049e+00,2.148119793869533112e+00,-4.476724803034040079e-01,0.000000000000000000e+00,0.000000000000000000e+00,0.000000000000000000e+00,4.049561786040993638e+01,-1.349801261458140900e+01
1.441015624999998114e-02,0.000000000000000000e+00,0.000000000000000000e+00,2.880727289881638842e-01,0.000000000000000000e+00,0.000000000000000000e+00,6.168452204253097371e+00,2.483508276563054729e+00,-7.576726304289775893e-01,0.000000000000000000e+00,0.000000000000000000e+00,0.000000000000000000e+00,4.063666388053484724e+01,-1.354508116575557786e+01
1.446015624999998084e-02,0.000000000000000000e+00,0.000000000000000000e+00,2.886352946455487678e-01,0.000000000000000000e+00,0.000000000000000000e+00,1.638458869369902615e+01,2.598856354603402252e+00,-8.067746325818889730e-01,0.000000000000000000e+00,0.000000000000000000e+00,0.000000000000000000e+00,4.077761720435241699e+01,-1.359312260812877682e+01
1.451015624999998054e-02,0.000000000000000000e+00,0.000000000000000000e+00,2.896489064030705052e-01,0.000000000000000000e+00,0.000000000000000000e+00,2.413501410234472999e+01,2.550022182522059477e+00,-7.602458018518617466e-01,0.000000000000000000e+00,0.000000000000000000e+00,0.000000000000000000e+00,4.091866394518126526e+01,-1.364083284798699935e+01
1.456015624999998023e-02,0.000000000000000000e+00,0.000000000000000000e+00,2.910507015904095218e-01,0.000000000000000000e+00,0.000000000000000000e+00,3.195454818575154832e+01,2.625891267176954980e+00,-8.160199814691472264e-01,0.000000000000000000e+00,0.000000000000000000e+00,0.000000000000000000e+00,4.105961761939836663e+01,-1.368759492687979673e+01
1.461015624999997993e-02,0.000000000000000000e+00,0.000000000000000000e+00,2.927561127180191014e-01,0.000000000000000000e+00,0.000000000000000000e+00,3.626577052139884927e+01,2.669249395833506622e+00,-8.397709118063855227e-01,0.000000000000000000e+00,0.000000000000000000e+00,0.000000000000000000e+00,4.120066314573415411e+01,-1.373387718899414622e+01
1.466015624999997963e-02,0.000000000000000000e+00,0.000000000000000000e+00,2.942782583639415583e-01,0.000000000000000000e+00,0.000000000000000000e+00,2.469323698179271176e+01,2.452560506444905197e+00,-6.550139140122395176e-01,0.000000000000000000e+00,0.000000000000000000e+00,0.000000000000000000e+00,4.134161872221494605e+01,-1.378005651338967752e+01
1.476015624999997902e-02,0.000000000000000000e+00,0.000000000000000000e+00,2.961862196546146686e-01,0.000000000000000000e+00,0.000000000000000000e+00,1.341137502849894680e+01,2.459578806153073671e+00,-7.198200686913042157e-01,0.000000000000000000e+00,0.000000000000000000e+00,0.000000000000000000e+00,4.162366119816670817e+01,-1.387382073935734894e+01
1.486015624999997842e-02,0.000000000000000000e+00,0.000000000000000000e+00,2.981975709236365790e-01,0.000000000000000000e+00,0.000000000000000000e+00,2.673762730815600008e+01,3.565341619623003666e+00,-1.869185290103146713e+00,0.000000000000000000e+00,0.000000000000000000e+00,0.000000000000000000e+00,4.190562133455431137e+01,-1.397058411042822890e+01
1.496015624999997781e-02,0.000000000000000000e+00,0.000000000000000000e+00,3.003255915881648530e-01,0.000000000000000000e+00,0.000000000000000000e+00,1.599469358365212202e+01,2.883471370541292433e+00,-1.283243280088576022e+00,0.000000000000000000e+00,0.000000000000000000e+00,0.000000000000000000e+00,4.218765868353590065e+01,-1.406583153194948466e+01
1.506015624999997721e-02,0.000000000000000000e+00,0.000000000000000000e+00,3.000253126408878313e-01,0.000000000000000000e+00,0.000000000000000000e+00,-2.199492930538447766e+01,4.241928326675566296e+00,-1.897596216381397749e+00,0.000000000000000000e+00,0.000000000000000000e+00,0.000000000000000000e+00,4.246962374489545766e+01,-1.415828177311511915e+01
1.516015624999997660e-02,0.000000000000000000e+00,0.000000000000000000e+00,2.981095957174550448e-01,0.000000000000000000e+00,0.000000000000000000e+00,-1.653120589208040414e+01,3.587715046885717185e-01,6.614743149971783476e-01,0.000000000000000000e+00,0.000000000000000000e+00,0.000000000000000000e+00,4.275165638177291072e+01,-1.425116751041199414e+01
1.526015624999997600e-02,0.000000000000000000e+00,0.000000000000000000e+00,2.991579139231226869e-01,0.000000000000000000e+00,0.000000000000000000e+00,3.741960834017091742e+01,2.122038997780255176e+00,-8.436795258461919911e-01,0.000000000000000000e+00,0.000000000000000000e+00,0.000000000000000000e+00,4.303362593569280392e+01,-1.434345372054763779e+01
1.536015624999997539e-02,0.000000000000000000e+00,0.000000000000000000e+00,3.019647769532400883e-01,0.000000000000000000e+00,0.000000000000000000e+00,1.912004723089182434e+01,4.089466111805284854e+00,-1.736339347053332816e+00,0.000000000000000000e+00,0.000000000000000000e+00,0.000000000000000000e+00,4.331565430276494766e+01,-1.443881659954739938e+01
1.546015624999997479e-02,0.000000000000000000e+00,0.000000000000000000e+00,3.041526348072460251e-01,0.000000000000000000e+00,0.000000000000000000e+00,2.423244004459598244e+01,1.009562739155786648e+00,2.645095993026643222e-01,0.000000000000000000e+00,0.000000000000000000e+00,0.000000000000000000e+00,4.359762790335954463e+01,-1.453481323411995163e+01
1.556015624999997418e-02,0.000000000000000000e+00,0.000000000000000000e+00,3.069752585894619523e-01,0.000000000000000000e+00,0.000000000000000000e+00,3.249924801668608154e+01,4.554284547385873516e+00,-2.215235980007011385e+00,0.000000000000000000e+00,0.000000000000000000e+00,0.000000000000000000e+00,4.387965244496312067e+01,-1.462728651511213585e+01
1.561015624999997388e-02,0.000000000000000000e+00,0.000000000000000000e+00,3.075195445546957118e-01,0.000000000000000000e+00,0.000000000000000000e+00,-7.730518242798900985e+00,1.038694475043528964e+00,3.410581660359056633e-01,0.000000000000000000e+00,0.000000000000000000e+00,0.000000000000000000e+00,4.402030244678175563e+01,-1.467212059575772010e+01
1.563515624999997286e-02,0.000000000000000000e+00,0.000000000000000000e+00,3.071606940371030547e-01,0.000000000000000000e+00,0.000000000000000000e+00,-1.983316698531654865e+01,9.402968158743461036e-01,3.002985839304523341e-01,0.000000000000000000e+00,0.000000000000000000e+00,0.000000000000000000e+00,4.409123529584791612e+01,-1.469412751056278665e+01
1.566015624999997358e-02,0.000000000000000000e+00,0.000000000000000000e+00,3.067285721885709693e-01,0.000000000000000000e+00,0.000000000000000000e+00,-1.564677791669572926e+01,1.069236420515576880e+00,1.201487765295518040e-01,0.000000000000000000e+00,0.000000000000000000e+00,0.000000000000000000e+00,4.416174414182714258e+01,-1.471845159356108645e+01
1.571015624999997501e-02,0.000000000000000000e+00,0.000000000000000000e+00,3.065747969536353756e-01,0.000000000000000000e+00,0.000000000000000000e+00,8.561856432281180318e+00,1.858946716811420430e+00,-5.426659880324943286e-01,0.000000000000000000e+00,0.000000000000000000e+00,0.000000000000000000e+00,4.430303020098828881e+01,-1.476644281026882410e+01
1.576015624999997644e-02,0.000000000000000000e+00,0.000000000000000000e+00,3.068004842995541992e-01,0.000000000000000000e+00,0.000000000000000000e+00,-7.443580898310917071e+00,2.828174673404658002e+00,-7.807853226355889742e-01,0.000000000000000000e+00,0.000000000000000000e+00,0.000000000000000000e+00,4.444420382070848063e+01,-1.481728138104947590e+01
1.581015624999997787e-02,0.000000000000000000e+00,0.000000000000000000e+00,3.063078044235444941e-01,0.000000000000000000e+00,0.000000000000000000e+00,-8.057877527154836628e+00,9.608449947136566971e-01,3.206434143841832007e-01,0.000000000000000000e+00,0.000000000000000000e+00,0.000000000000000000e+00,4.458529740125316465e+01,-1.486554311273971862e+01
1.586015624999997931e-02,0.000000000000000000e+00,0.000000000000000000e+00,3.060698471404381671e-01,0.000000000000000000e+00,0.000000000000000000e+00,5.591162543102046634e+00,9.689885264846525015e-01,-1.615837434881764109e-02,0.000000000000000000e+00,0.000000000000000000e+00,0.000000000000000000e+00,4.472633508981712680e+01,-1.490768129556320076e+01
1.591015624999998074e-02,0.000000000000000000e+00,0.000000000000000000e+00,3.072136226248505797e-01,0.000000000000000000e+00,0.000000000000000000e+00,4.016051020727518051e+01,1.836197174025037793e+00,-7.284571803082076080e-01,0.000000000000000000e+00,0.000000000000000000e+00,0.000000000000000000e+00,4.486593535237410180e+01,-1.495130320341170638e+01
1.596015624999998217e-02,0.000000000000000000e+00,0.000000000000000000e+00,3.089018559994995416e-01,0.000000000000000000e+00,0.000000000000000000e+00,2.759388058945752675e+01,9.001613840990783544e+00,-5.090957055693899669e+00,0.000000000000000000e+00,0.000000000000000000e+00,0.000000000000000000e+00,4.500834759923089479e+01,-1.500147023756756148e+01
1.601015624999998360e-02,0.000000000000000000e+00,0.000000000000000000e+00,3.095618348561230415e-01,0.000000000000000000e+00,0.000000000000000000e+00,-1.280376352810562057e+00,6.434407750710694485e-01,1.061188569513860758e+00,0.000000000000000000e+00,0.000000000000000000e+00,0.000000000000000000e+00,4.514793934221635396e+01,-1.505511296078554473e+01
1.606015624999998503e-02,0.000000000000000000e+00,0.000000000000000000e+00,3.099733234153216888e-01,0.000000000000000000e+00,0.000000000000000000e+00,1.757384373163833047e+01,7.545492923003004337e-01,3.450095511791574920e-01,0.000000000000000000e+00,0.000000000000000000e+00,0.000000000000000000e+00,4.529033028488525758e+01,-1.510167565783317656e+01
1.611015624999998647e-02,0.000000000000000000e+00,0.000000000000000000e+00,3.110985037668229092e-01,0.000000000000000000e+00,0.000000000000000000e+00,2.759640886095234791e+01,3.955808232305839223e+00,-2.035801874961388869e+00,0.000000000000000000e+00,0.000000000000000000e+00,0.000000000000000000e+00,4.542996727626538700e+01,-1.514254639192908947e+01
1.616015624999998790e-02,0.000000000000000000e+00,0.000000000000000000e+00,3.121864664974896009e-01,0.000000000000000000e+00,0.000000000000000000e+00,1.590740996894072090e+01,4.546992666773235214e+00,-2.162051754819303895e+00,0.000000000000000000e+00,0.000000000000000000e+00,0.000000000000000000e+00,4.557229402822066788e+01,-1.518855973800994263e+01
1.621015624999998933e-02,0.000000000000000000e+00,0.000000000000000000e+00,3.129424310497883055e-01,0.000000000000000000e+00,0.000000000000000000e+00,1.429364916711654132e+01,2.450170222421970967e-01,8.510248996848878145e-01,0.000000000000000000e+00,0.000000000000000000e+00,0.000000000000000000e+00,4.571200991168286976e+01,-1.523798065916866307e+01
1.626015624999999076e-02,0.000000000000000000e+00,0.000000000000000000e+00,3.140239362550237834e-01,0.000000000000000000e+00,0.000000000000000000e+00,2.891616294048282398e+01,5.901634515849496498e-01,1.883905920255736777e-01,0.000000000000000000e+00,0.000000000000000000e+00,0.000000000000000000e+00,4.585424665236673292e+01,-1.528450123839015440e+01
1.631015624999999220e-02,0.000000000000000000e+00,0.000000000000000000e+00,3.160339220838314644e-01,0.000000000000000000e+00,0.000000000000000000e+00,5.148191599267475027e+01,1.746029838639206133e+00,-7.462384717721850524e-01,0.000000000000000000e+00,0.000000000000000000e+00,0.000000000000000000e+00,4.599406065352847861e+01,-1.532911172604011263e+01
1.636015624999999363e-02,0.000000000000000000e+00,0.000000000000000000e+00,3.184303245143198513e-01,0.000000000000000000e+00,0.000000000000000000e+00,4.451646374652356286e+01,6.339479915678086996e+00,-3.617460095102582596e+00,0.000000000000000000e+00,0.000000000000000000e+00,0.000000000000000000e+00,4.613619369148364058e+01,-1.537735819079079924e+01
1.646015624999999302e-02,0.000000000000000000e+00,0.000000000000000000e+00,3.216471930056781225e-01,0.000000000000000000e+00,0.000000000000000000e+00,1.980234971126733612e+01,6.267815445617205272e-01,6.418496337967758425e-01,0.000000000000000000e+00,0.000000000000000000e+00,0.000000000000000000e+00,4.641713944059586794e+01,-1.547683591263708003e+01
1.656015624999999242e-02,0.000000000000000000e+00,0.000000000000000000e+00,3.246107764044523503e-01,0.000000000000000000e+00,0.000000000000000000e+00,3.927141105258414200e+01,2.635942704802858749e+00,-1.377815612996601047e+00,0.000000000000000000e+00,0.000000000000000000e+00,0.000000000000000000e+00,4.670009477307296208e+01,-1.556648882698032565e+01
1.666015624999999181e-02,0.000000000000000000e+00,0.000000000000000000e+00,3.269805153134709430e-01,0.000000000000000000e+00,0.000000000000000000e+00,8.507648087000767134e+00,4.292041071020196163e+00,-2.105972379265789396e+00,0.000000000000000000e+00,0.000000000000000000e+00,0.000000000000000000e+00,4.698122911783438127e+01,-1.565875806808140425e+01
1.676015624999999121e-02,0.000000000000000000e+00,0.000000000000000000e+00,3.277937208703496363e-01,0.000000000000000000e+00,0.000000000000000000e+00,7.335399794719055677e+00,1.138733525562662940e+00,5.191519898738714694e-02,0.000000000000000000e+00,0.000000000000000000e+00,0.000000000000000000e+00,4.726401347795815155e+01,-1.575779752037813353e+01
1.686015624999999060e-02,0.000000000000000000e+00,0.000000000000000000e+00,3.284568636051274915e-01,0.000000000000000000e+00,0.000000000000000000e+00,6.233346860320012617e+00,4.162630173184880711e+00,-2.177482658559446893e+00,0.000000000000000000e+00,0.000000000000000000e+00,0.000000000000000000e+00,4.754530281047906470e+01,-1.585040376065857259e+01
1.696015624999999000e-02,0.000000000000000000e+00,0.000000000000000000e+00,3.293487751446587120e-01,0.000000000000000000e+00,0.000000000000000000e+00,1.135264979770540350e+01,5.232732847121307485e-01,3.541433112382880166e-01,0.000000000000000000e+00,0.000000000000000000e+00,0.000000000000000000e+00,4.782794668024207141e+01,-1.594135628549843986e+01
1.706015624999998939e-02,0.000000000000000000e+00,0.000000000000000000e+00,3.310417213437442108e-01,0.000000000000000000e+00,0.000000000000000000e+00,2.266010878736783241e+01,4.331510734025934006e+00,-2.333967298559970427e+00,0.000000000000000000e+00,0.000000000000000000e+00,0.000000000000000000e+00,4.810936335532527153e+01,-1.603629177278325457e+01
1.716015624999998879e-02,0.000000000000000000e+00,0.000000000000000000e+00,3.335765959474000786e-01,0.000000000000000000e+00,0.000000000000000000e+00,2.795427530851199194e+01,5.930662556308321509e-01,3.420033296781477272e-01,0.000000000000000000e+00,0.000000000000000000e+00,0.000000000000000000e+00,4.839189180566570769e+01,-1.613211912106952539e+01
1.726015624999998818e-02,0.000000000000000000e+00,0.000000000000000000e+00,3.366198450485509697e-01,0.000000000000000000e+00,0.000000000000000000e+00,3.297246932238709860e+01,4.601436076730721858e+00,-2.583895336728580183e+00,0.000000000000000000e+00,0.000000000000000000e+00,0.000000000000000000e+00,4.867341308823697688e+01,-1.622502004662970165e+01
1.736015624999998758e-02,0.000000000000000000e+00,0.000000000000000000e+00,3.397616846552325987e-01,0.000000000000000000e+00,0.000000000000000000e+00,2.985831530708750847e+01,5.952848703433489819e-01,2.998954046400630347e-01,0.000000000000000000e+00,0.000000000000000000e+00,0.000000000000000000e+00,4.895584673483282501e+01,-1.631831557175924274e+01
1.746015624999998697e-02,0.000000000000000000e+00,0.000000000000000000e+00,3.437135998188847186e-01,0.000000000000000000e+00,0.000000000000000000e+00,4.907749898480163608e+01,2.533628898106027538e+00,-1.458506897162079818e+00,0.000000000000000000e+00,0.000000000000000000e+00,0.000000000000000000e+00,4.923745393207644128e+01,-1.641148487763549468e+01
1.756015624999998637e-02,0.000000000000000000e+00,0.000000000000000000e+00,3.471831584701811080e-01,0.000000000000000000e+00,0.000000000000000000e+00,2.061634705901469644e+01,4.598956581548581113e+00,-2.390686246079885446e+00,0.000000000000000000e+00,0.000000000000000000e+00,0.000000000000000000e+00,4.951980972329552344e+01,-1.650770470226727937e+01
1.766015624999998576e-02,0.000000000000000000e+00,0.000000000000000000e+00,3.498421191362068305e-01,0.000000000000000000e+00,0.000000000000000000e+00,3.215137116698862485e+01,1.474553929212879977e+00,-3.470867090780575537e-01,0.000000000000000000e+00,0.000000000000000000e+00,0.000000000000000000e+00,4.980148746933541304e+01,-1.660470459095672879e+01
1.771015624999998719e-02,0.000000000000000000e+00,0.000000000000000000e+00,3.512656285044548632e-01,0.000000000000000000e+00,0.000000000000000000e+00,2.721198552725530462e+01,1.647578061343897948e+00,-6.854834398961366926e-01,0.000000000000000000e+00,0.000000000000000000e+00,0.000000000000000000e+00,4.994245396373476353e+01,-1.664740754745199069e+01
1.772265624999998582e-02,0.000000000000000000e+00,0.000000000000000000e+00,3.515544446606999607e-01,0.000000000000000000e+00,0.000000000000000000e+00,1.870807456968760363e+01,1.551827985149047739e+00,-6.256557479383214604e-01,0.000000000000000000e+00,0.000000000000000000e+00,0.000000000000000000e+00,4.997809392563640074e+01,-1.665823524394375710e+01
1.776015624999998169e-02,0.000000000000000000e+00,0.000000000000000000e+00,3.519646844606193481e-01,0.000000000000000000e+00,0.000000000000000000e+00,-4.980964668826612929e+00,4.835301894387270316e+00,-2.645275027910821031e+00,0.000000000000000000e+00,0.000000000000000000e+00,0.000000000000000000e+00,5.008341520565464577e+01,-1.669198184686021236e+01
1.781015624999997618e-02,0.000000000000000000e+00,0.000000000000000000e+00,3.515483878531153183e-01,0.000000000000000000e+00,0.000000000000000000e+00,-2.879268542235156048e+00,2.219531991980492780e+00,-7.561354090974491404e-01,0.000000000000000000e+00,0.000000000000000000e+00,0.000000000000000000e+00,5.022442518132096012e+01,-1.674399578683890866e+01
1.786015624999997414e-02,0.000000000000000000e+00,0.000000000000000000e+00,3.518291184133852667e-01,0.000000000000000000e+00,0.000000000000000000e+00,1.402100378984238027e+01,1.602395801794876284e+00,-5.584345402572540307e-01,0.000000000000000000e+00,0.000000000000000000e+00,0.000000000000000000e+00,5.036582774729371437e+01,-1.679234038108390692e+01
1.791015624999997558e-02,0.000000000000000000e+00,0.000000000000000000e+00,3.529234105188430726e-01,0.000000000000000000e+00,0.000000000000000000e+00,2.948422238813646956e+01,1.610021042156188242e+00,-7.247201024070198949e-01,0.000000000000000000e+00,0.000000000000000000e+00,0.000000000000000000e+00,5.050680101222975082e+01,-1.683635644635930362e+01
1.796015624999997701e-02,0.000000000000000000e+00,0.000000000000000000e+00,3.540902274360517854e-01,0.000000000000000000e+00,0.000000000000000000e+00,1.369202983997043965e+01,1.291520727092951848e+00,-4.602388347930113643e-01,0.000000000000000000e+00,0.000000000000000000e+00,0.000000000000000000e+00,5.064777768137015102e+01,-1.687957321225592366e+01
1.801015624999997844e-02,0.000000000000000000e+00,0.000000000000000000e+00,3.542618942726128428e-01,0.000000000000000000e+00,0.000000000000000000e+00,-6.839976986030809947e+00,2.979246529116691633e+00,-1.229928352119828983e+00,0.000000000000000000e+00,0.000000000000000000e+00,0.000000000000000000e+00,5.078875742626399159e+01,-1.692799890883046743e+01
1.806015624999997987e-02,0.000000000000000000e+00,0.000000000000000000e+00,3.543686501171704473e-01,0.000000000000000000e+00,0.000000000000000000e+00,1.436177912743023555e+01,1.705435216524599618e+00,-4.692351088968144679e-01,0.000000000000000000e+00,0.000000000000000000e+00,0.000000000000000000e+00,5.092973992036964148e+01,-1.698016731111227529e+01
1.813515624999998202e-02,0.000000000000000000e+00,0.000000000000000000e+00,3.560820286672173873e-01,0.000000000000000000e+00,0.000000000000000000e+00,2.604787772913132926e+01,1.241057708909512280e+00,-4.340025702140608010e-01,0.000000000000000000e+00,0.000000000000000000e+00,0.000000000000000000e+00,5.114121805805457655e+01,-1.704841862680353515e+01
1.818515624999998345e-02,0.000000000000000000e+00,0.000000000000000000e+00,3.573824979513755551e-01,0.000000000000000000e+00,0.000000000000000000e+00,2.596087937694351666e+01,1.434187601582486815e+00,-6.628326311151458983e-01,0.000000000000000000e+00,0.000000000000000000e+00,0.000000000000000000e+00,5.128207533999787415e+01,-1.709080603467114656e+01
1.823515624999998488e-02,0.000000000000000000e+00,0.000000000000000000e+00,3.587148976443145232e-01,0.000000000000000000e+00,0.000000000000000000e+00,2.733539853224468175e+01,5.897884550440010365e+00,-3.673436467872430278e+00,0.000000000000000000e+00,0.000000000000000000e+00,0.000000000000000000e+00,5.142319541723573906e+01,-1.713799872971906879e+01
1.828515624999998632e-02,0.000000000000000000e+00,0.000000000000000000e+00,3.600504365652954508e-01,0.000000000000000000e+00,0.000000000000000000e+00,2.609844235581599747e+01,1.835839158918553871e+00,-4.437430163842853159e-01,0.000000000000000000e+00,0.000000000000000000e+00,0.000000000000000000e+00,5.156409487983110296e+01,-1.719061055930585979e+01
1.833515624999998775e-02,0.000000000000000000e+00,0.000000000000000000e+00,3.618917005728259917e-01,0.000000000000000000e+00,0.000000000000000000e+00,4.743517600641872889e+01,1.973276867575614490e+00,-8.645928664008205589e-01,0.000000000000000000e+00,0.000000000000000000e+00,0.000000000000000000e+00,5.170517858459375304e+01,-1.724017964063403952e+01
1.838515624999998918e-02,0.000000000000000000e+00,0.000000000000000000e+00,3.641251453644954728e-01,0.000000000000000000e+00,0.000000000000000000e+00,4.211520836856185213e+01,1.451109823001629939e+00,-6.157193186237740479e-01,0.000000000000000000e+00,0.000000000000000000e+00,0.000000000000000000e+00,5.184610935132441512e+01,-1.728347128888953321e+01
1.843515624999999061e-02,0.000000000000000000e+00,0.000000000000000000e+00,3.659081406815409276e-01,0.000000000000000000e+00,0.000000000000000000e+00,2.908687357406633467e+01,2.277532157882160568e+00,-1.594921184264904035e+00,0.000000000000000000e+00,0.000000000000000000e+00,0.000000000000000000e+00,5.198716617035346843e+01,-1.732574005013963614e+01
1.848515624999999205e-02,0.000000000000000000e+00,0.000000000000000000e+00,3.669966330642467356e-01,0.000000000000000000e+00,0.000000000000000000e+00,1.454568263607823830e+01,6.786410242722427988e+00,-4.804413090920396812e+00,0.000000000000000000e+00,0.000000000000000000e+00,0.000000000000000000e+00,5.212811997504769579e+01,-1.737404050163511471e+01
1.853515624999999348e-02,0.000000000000000000e+00,0.000000000000000000e+00,3.673095561001258336e-01,0.000000000000000000e+00,0.000000000000000000e+00,-2.086292649445343983e+00,2.310223169340886340e+00,-1.158915557754132131e+00,0.000000000000000000e+00,0.000000000000000000e+00,0.000000000000000000e+00,5.226915710318324670e+01,-1.742823006440007561e+01
1.858515624999999491e-02,0.000000000000000000e+00,0.000000000000000000e+00,3.675714993527490759e-01,0.000000000000000000e+00,0.000000000000000000e+00,1.245670127574633668e+01,1.993119322721594200e+00,-1.209377037222722828e+00,0.000000000000000000e+00,0.000000000000000000e+00,0.000000000000000000e+00,5.241012769073256550e+01,-1.747800020008753563e+01
1.868515624999999430e-02,0.000000000000000000e+00,0.000000000000000000e+00,3.674829845884920454e-01,0.000000000000000000e+00,0.000000000000000000e+00,-1.395299867272802885e+01,3.374721371401185888e+00,-2.153180863593469052e+00,0.000000000000000000e+00,0.000000000000000000e+00,0.000000000000000000e+00,5.269214762410917530e+01,-1.756454466301479655e+01
1.878515624999999370e-02,0.000000000000000000e+00,0.000000000000000000e+00,3.668387408360781476e-01,0.000000000000000000e+00,0.000000000000000000e+00,6.725117137541505308e-01,1.853598507480212487e-01,2.495313307556191462e-01,0.000000000000000000e+00,0.000000000000000000e+00,0.000000000000000000e+00,5.297413850336078411e+01,-1.765473455994791152e+01
1.888515624999999309e-02,0.000000000000000000e+00,0.000000000000000000e+00,3.677491618353226355e-01,0.000000000000000000e+00,0.000000000000000000e+00,1.781159933901448866e+01,4.006729822245360673e+00,-2.493265519723654400e+00,0.000000000000000000e+00,0.000000000000000000e+00,0.000000000000000000e+00,5.325613877467101531e+01,-1.775318736482215698e+01
1.898515624999999249e-02,0.000000000000000000e+00,0.000000000000000000e+00,3.701672230649883377e-01,0.000000000000000000e+00,0.000000000000000000e+00,3.037103487045486716e+01,3.025295532869776705e-01,2.800820553619460251e-01,0.000000000000000000e+00,0.000000000000000000e+00,0.000000000000000000e+00,5.353814567411632908e+01,-1.784886743964725753e+01
1.908515624999999188e-02,0.000000000000000000e+00,0.000000000000000000e+00,3.732529534046956643e-01,0.000000000000000000e+00,0.000000000000000000e+00,3.152801305142073218e+01,4.319967414425844865e+00,-2.764506445546583091e+00,0.000000000000000000e+00,0.000000000000000000e+00,0.000000000000000000e+00,5.382013303535507021e+01,-1.793904127088085687e+01
1.911015624999999260e-02,0.000000000000000000e+00,0.000000000000000000e+00,3.738104339983184254e-01,0.000000000000000000e+00,0.000000000000000000e+00,1.379787000567691280e+01,1.934834293965849605e+00,-7.890508172117540742e-01,0.000000000000000000e+00,0.000000000000000000e+00,0.000000000000000000e+00,5.389060617676222620e+01,-1.796187625140180089e+01
