time[s],flange_omega_x[rad/s],flange_omega_y[rad/s],flange_omega_z[rad/s],flange_alpha_x[rad/s2],flange_alpha_y[rad/s2],flange_alpha_z[rad/s2],cycloid_acc_x[m/s2],cycloid_acc_y[m/s2],cycloid_acc_z[m/s2],input_omega_x[rad/s],input_omega_y[rad/s],input_omega_z[rad/s],crank_omega_z[rad/s]
0.000000000000000000e+00,0.000000000000000000e+00,0.000000000000000000e+00,0.000000000000000000e+00,0.000000000000000000e+00,0.000000000000000000e+00,7.701947378638141345e+03,-9.007359125380503428e+01,1.802990128583227829e+02,0.000000000000000000e+00,0.000000000000000000e+00,0.000000000000000000e+00,0.000000000000000000e+00,0.000000000000000000e+00
5.000000000000001595e-05,0.000000000000000000e+00,0.000000000000000000e+00,6.642489777076382093e-03,0.000000000000000000e+00,0.000000000000000000e+00,-1.786717188555400924e+02,3.637938262149125990e+01,1.640661858255841921e+01,0.000000000000000000e+00,0.000000000000000000e+00,0.000000000000000000e+00,1.409797144887676712e-01,-1.081694432730575389e-01
1.031250000000000130e-04,0.000000000000000000e+00,0.000000000000000000e+00,7.613300921953176058e-03,0.000000000000000000e+00,0.000000000000000000e+00,-2.677249572492296537e+01,9.806916882236947908e-01,1.551145022326502598e+01,0.000000000000000000e+00,0.000000000000000000e+00,0.000000000000000000e+00,2.908076656924081238e-01,-1.254719874204485719e-01
1.593750000000000114e-04,0.000000000000000000e+00,0.000000000000000000e+00,9.487065743795337208e-03,0.000000000000000000e+00,0.000000000000000000e+00,5.854712563511839107e+00,-6.488694671153776738e+00,9.319607492649222280e+00,0.000000000000000000e+00,0.000000000000000000e+00,0.000000000000000000e+00,4.494377928560773228e-01,-1.252750215473187878e-01
2.093750000000000342e-04,0.000000000000000000e+00,0.000000000000000000e+00,1.238347066021110512e-02,0.000000000000000000e+00,0.000000000000000000e+00,4.925367487043210701e+01,-4.995738995242683167e+00,6.310959644959849513e+00,0.000000000000000000e+00,0.000000000000000000e+00,0.000000000000000000e+00,5.904363069047163792e-01,-1.898030849586354041e-01
2.593750000000000027e-04,0.000000000000000000e+00,0.000000000000000000e+00,1.486518001324832472e-02,0.000000000000000000e+00,0.000000000000000000e+00,4.702267563812491602e+01,-3.360269069214489424e+00,2.957300902801583753e+00,0.000000000000000000e+00,0.000000000000000000e+00,0.000000000000000000e+00,7.314358083554325374e-01,-2.407372388941392549e-01
3.093749999999999170e-04,0.000000000000000000e+00,0.000000000000000000e+00,1.882858612399477063e-02,0.000000000000000000e+00,0.000000000000000000e+00,1.219053691493284504e+02,2.692681560367106708e-01,-8.608815301751805427e-01,0.000000000000000000e+00,0.000000000000000000e+00,0.000000000000000000e+00,8.724357938123971090e-01,-2.925605578791313222e-01
3.718749999999999183e-04,0.000000000000000000e+00,0.000000000000000000e+00,2.564692580043144779e-02,0.000000000000000000e+00,0.000000000000000000e+00,8.920107379611516762e+01,3.808035767348080025e+00,-6.357526651391061989e+00,0.000000000000000000e+00,0.000000000000000000e+00,0.000000000000000000e+00,1.048689001663873688e+00,-3.528482115235458960e-01
4.093749999999998540e-04,0.000000000000000000e+00,0.000000000000000000e+00,2.959418476281609756e-02,0.000000000000000000e+00,0.000000000000000000e+00,1.085209657502668819e+02,5.742179624626612799e+00,-9.772818071973125242e+00,0.000000000000000000e+00,0.000000000000000000e+00,0.000000000000000000e+00,1.154239762351125131e+00,-3.891077740900445447e-01
4.593749999999997683e-04,0.000000000000000000e+00,0.000000000000000000e+00,3.433937932046407515e-02,0.000000000000000000e+00,0.000000000000000000e+00,8.679842784461979477e+01,5.848947826459943933e+00,-1.220697208493480268e+01,0.000000000000000000e+00,0.000000000000000000e+00,0.000000000000000000e+00,1.295135741088245140e+00,-4.384878474242871471e-01
5.218749999999996612e-04,0.000000000000000000e+00,0.000000000000000000e+00,4.015168409383640391e-02,0.000000000000000000e+00,0.000000000000000000e+00,9.014161068085223860e+01,4.337426933163402332e+00,-1.287575627219947449e+01,0.000000000000000000e+00,0.000000000000000000e+00,0.000000000000000000e+00,1.471378268833563485e+00,-4.909011590332129638e-01
5.718749999999995755e-04,0.000000000000000000e+00,0.000000000000000000e+00,4.522645341536821184e-02,0.000000000000000000e+00,0.000000000000000000e+00,9.775674106912435946e+01,4.066012909478943449e+00,-1.197363581052610826e+01,0.000000000000000000e+00,0.000000000000000000e+00,0.000000000000000000e+00,1.612393932685532105e+00,-5.350914370667547715e-01
6.218749999999994898e-04,0.000000000000000000e+00,0.000000000000000000e+00,5.055691462050026369e-02,0.000000000000000000e+00,0.000000000000000000e+00,9.666927069987018228e+01,4.574003934097642166e+00,-9.752324202708054557e+00,0.000000000000000000e+00,0.000000000000000000e+00,0.000000000000000000e+00,1.753414807518856033e+00,-5.829759744061326909e-01
6.718749999999994041e-04,0.000000000000000000e+00,0.000000000000000000e+00,5.550990408459651609e-02,0.000000000000000000e+00,0.000000000000000000e+00,8.500547066603947144e+01,6.341516840660860410e+00,-6.396467556797094112e+00,0.000000000000000000e+00,0.000000000000000000e+00,0.000000000000000000e+00,1.894438347695577285e+00,-6.319634739316649652e-01
7.218749999999993184e-04,0.000000000000000000e+00,0.000000000000000000e+00,5.993522234757937134e-02,0.000000000000000000e+00,0.000000000000000000e+00,9.138561291984639468e+01,1.792969648742192224e+00,-5.362910833847378989e+00,0.000000000000000000e+00,0.000000000000000000e+00,0.000000000000000000e+00,2.035462786803714952e+00,-6.754971027791792926e-01
7.718749999999992327e-04,0.000000000000000000e+00,0.000000000000000000e+00,6.415109449186487400e-02,0.000000000000000000e+00,0.000000000000000000e+00,5.886835993297452774e+01,-2.602741849796839979e+00,-3.701764551566594452e+00,0.000000000000000000e+00,0.000000000000000000e+00,0.000000000000000000e+00,2.176486933448952499e+00,-7.234199817232545016e-01
8.031249999999991521e-04,0.000000000000000000e+00,0.000000000000000000e+00,6.605842702479682027e-02,0.000000000000000000e+00,0.000000000000000000e+00,6.304181873170809070e+01,-2.743359808543284650e+00,-2.042198425951844865e+00,0.000000000000000000e+00,0.000000000000000000e+00,0.000000000000000000e+00,2.264536547070672867e+00,-7.552324048563568981e-01
8.499999999999988684e-04,0.000000000000000000e+00,0.000000000000000000e+00,6.810256532291672493e-02,0.000000000000000000e+00,0.000000000000000000e+00,2.406330360734767737e+01,-4.534280677323128117e+00,1.399919045428932973e+00,0.000000000000000000e+00,0.000000000000000000e+00,0.000000000000000000e+00,2.396712089171681992e+00,-8.048063706867027989e-01
9.031249999999985470e-04,0.000000000000000000e+00,0.000000000000000000e+00,6.865866213284121944e-02,0.000000000000000000e+00,0.000000000000000000e+00,3.210721687431951743e+00,-4.507850235068972644e+00,4.678114348291372515e+00,0.000000000000000000e+00,0.000000000000000000e+00,0.000000000000000000e+00,2.546949483020245264e+00,-8.532626276869772486e-01
9.531249999999985697e-04,0.000000000000000000e+00,0.000000000000000000e+00,6.863360109773340711e-02,0.000000000000000000e+00,0.000000000000000000e+00,-7.601791247455691014e+00,-1.449289510013937354e+00,5.784225138582954173e+00,0.000000000000000000e+00,0.000000000000000000e+00,0.000000000000000000e+00,2.687747420491705341e+00,-9.010041473022011305e-01
1.003124999999998376e-03,0.000000000000000000e+00,0.000000000000000000e+00,6.858569821485482887e-02,0.000000000000000000e+00,0.000000000000000000e+00,1.080718614300225511e+01,2.306759072783782116e+00,5.123802248519892188e+00,0.000000000000000000e+00,0.000000000000000000e+00,0.000000000000000000e+00,2.828785958921451016e+00,-9.487077515159227925e-01
1.053124999999998073e-03,0.000000000000000000e+00,0.000000000000000000e+00,6.970483304123652191e-02,0.000000000000000000e+00,0.000000000000000000e+00,3.030310803558132804e+01,4.288494477121761683e+00,4.026174635239540223e+00,0.000000000000000000e+00,0.000000000000000000e+00,0.000000000000000000e+00,2.969746062032494027e+00,-9.945234834550722436e-01
1.103124999999997771e-03,0.000000000000000000e+00,0.000000000000000000e+00,7.109734622982850916e-02,0.000000000000000000e+00,0.000000000000000000e+00,2.409577727157607896e+01,5.579931995114157495e+00,2.942245032554496209e+00,0.000000000000000000e+00,0.000000000000000000e+00,0.000000000000000000e+00,3.110619384569848656e+00,-1.035716911777636140e+00
1.153124999999997468e-03,0.000000000000000000e+00,0.000000000000000000e+00,7.214717567240751250e-02,0.000000000000000000e+00,0.000000000000000000e+00,1.645286153145884356e+01,6.306381484850137831e+00,2.223065999055965580e+00,0.000000000000000000e+00,0.000000000000000000e+00,0.000000000000000000e+00,3.251587693298918058e+00,-1.080758322061546650e+00
1.215624999999997524e-03,0.000000000000000000e+00,0.000000000000000000e+00,7.282766889137944066e-02,0.000000000000000000e+00,0.000000000000000000e+00,5.806537108366120137e+00,3.789162663444734847e+00,-2.461641979634126010e-01,0.000000000000000000e+00,0.000000000000000000e+00,0.000000000000000000e+00,3.428277408761955414e+00,-1.142094528637980666e+00
1.253124999999997297e-03,0.000000000000000000e+00,0.000000000000000000e+00,7.287698199381234532e-02,0.000000000000000000e+00,0.000000000000000000e+00,-6.531885947633892187e+00,2.025329700847830150e+00,-2.690338279942172228e+00,0.000000000000000000e+00,0.000000000000000000e+00,0.000000000000000000e+00,3.533432703271561337e+00,-1.180048538600716013e+00
1.303124999999996994e-03,0.000000000000000000e+00,0.000000000000000000e+00,7.254379018984107030e-02,0.000000000000000000e+00,0.000000000000000000e+00,-6.496325692488893466e+00,1.238087526084309609e+00,-3.736133362801358437e+00,0.000000000000000000e+00,0.000000000000000000e+00,0.000000000000000000e+00,3.675274305785959150e+00,-1.231249471135918983e+00
1.359374999999996654e-03,0.000000000000000000e+00,0.000000000000000000e+00,7.206975854710599705e-02,0.000000000000000000e+00,0.000000000000000000e+00,-8.979546958372731424e+00,-7.690570951052069226e-01,-4.745302762478386782e+00,0.000000000000000000e+00,0.000000000000000000e+00,0.000000000000000000e+00,3.833108359680432731e+00,-1.280955774263311531e+00
1.409374999999996351e-03,0.000000000000000000e+00,0.000000000000000000e+00,7.152527122916026159e-02,0.000000000000000000e+00,0.000000000000000000e+00,-1.395797522247374189e+01,-4.511570603415836489e-01,-3.819495513012010068e+00,0.000000000000000000e+00,0.000000000000000000e+00,0.000000000000000000e+00,3.974207409951964642e+00,-1.326699485842992354e+00
1.459374999999996049e-03,0.000000000000000000e+00,0.000000000000000000e+00,7.050784336889333315e-02,0.000000000000000000e+00,0.000000000000000000e+00,-2.959225044053009412e+01,-6.529413926361482545e-01,-3.258631448699146560e+00,0.000000000000000000e+00,0.000000000000000000e+00,0.000000000000000000e+00,4.115277259953749933e+00,-1.379837564764060831e+00
1.509374999999995963e-03,0.000000000000000000e+00,0.000000000000000000e+00,6.830826012471863384e-02,0.000000000000000000e+00,0.000000000000000000e+00,-5.683335774129157869e+01,-3.134817539104515216e+00,-2.333543902974219098e+00,0.000000000000000000e+00,0.000000000000000000e+00,0.000000000000000000e+00,4.256548391189475922e+00,-1.425921225085106769e+00
1.559374999999996094e-03,0.000000000000000000e+00,0.000000000000000000e+00,6.486712283499794507e-02,0.000000000000000000e+00,0.000000000000000000e+00,-8.070385582200158581e+01,-4.963377127726849025e+00,-7.592396834856541821e-01,0.000000000000000000e+00,0.000000000000000000e+00,0.000000000000000000e+00,4.397512246754519794e+00,-1.468382289439161381e+00
1.609374999999995792e-03,0.000000000000000000e+00,0.000000000000000000e+00,6.035272531105550370e-02,0.000000000000000000e+00,0.000000000000000000e+00,-9.924788523691039188e+01,-5.154743391827157240e+00,2.369250833929836819e-01,0.000000000000000000e+00,0.000000000000000000e+00,0.000000000000000000e+00,4.538666965479260185e+00,-1.513514714156799057e+00
1.649999999999996522e-03,0.000000000000000000e+00,0.000000000000000000e+00,5.615791916851055332e-02,0.000000000000000000e+00,0.000000000000000000e+00,-1.065335584273696981e+02,-4.140883912501418962e+00,6.234168155382803223e-01,0.000000000000000000e+00,0.000000000000000000e+00,0.000000000000000000e+00,4.653168510402054814e+00,-1.550295864864178919e+00
1.703124999999996309e-03,0.000000000000000000e+00,0.000000000000000000e+00,5.052526495089552233e-02,0.000000000000000000e+00,0.000000000000000000e+00,-1.037191814254214677e+02,-2.256357762026887759e+00,2.287187554214694107e-01,0.000000000000000000e+00,0.000000000000000000e+00,0.000000000000000000e+00,4.802751734964243013e+00,-1.600380948698184813e+00
1.753124999999996006e-03,0.000000000000000000e+00,0.000000000000000000e+00,4.561537566540321137e-02,0.000000000000000000e+00,0.000000000000000000e+00,-9.111172851687688024e+01,-4.665544385537628291e-01,-1.104135431284358482e-01,0.000000000000000000e+00,0.000000000000000000e+00,0.000000000000000000e+00,4.943832858064413749e+00,-1.647159689368286273e+00
1.803124999999995703e-03,0.000000000000000000e+00,0.000000000000000000e+00,4.146824954899041432e-02,0.000000000000000000e+00,0.000000000000000000e+00,-7.509522393402347973e+01,1.045737149689275336e+00,-2.342292334258292419e-01,0.000000000000000000e+00,0.000000000000000000e+00,0.000000000000000000e+00,5.084813265514529057e+00,-1.694222002977469055e+00
1.853124999999995401e-03,0.000000000000000000e+00,0.000000000000000000e+00,3.810750596661009737e-02,0.000000000000000000e+00,0.000000000000000000e+00,-5.928008531150323535e+01,1.958825002600091070e+00,2.182206628109239696e-02,0.000000000000000000e+00,0.000000000000000000e+00,0.000000000000000000e+00,5.225804741028760247e+00,-1.740992262705860272e+00
1.903124999999995098e-03,0.000000000000000000e+00,0.000000000000000000e+00,3.555793511996852702e-02,0.000000000000000000e+00,0.000000000000000000e+00,-4.281138028217747404e+01,2.309608019579176830e+00,5.547680522023655802e-01,0.000000000000000000e+00,0.000000000000000000e+00,0.000000000000000000e+00,5.366997623711042387e+00,-1.787618877595054556e+00
1.953124999999994796e-03,0.000000000000000000e+00,0.000000000000000000e+00,3.386563097594688654e-02,0.000000000000000000e+00,0.000000000000000000e+00,-2.576798584571087858e+01,2.710731974329365190e+00,9.249851575859523445e-01,0.000000000000000000e+00,0.000000000000000000e+00,0.000000000000000000e+00,5.508058759316018183e+00,-1.834213508689799932e+00
2.003124999999994493e-03,0.000000000000000000e+00,0.000000000000000000e+00,3.282740066707930809e-02,0.000000000000000000e+00,0.000000000000000000e+00,-1.378109732465459558e+01,2.899289745086528924e+00,1.221755866262688173e+00,0.000000000000000000e+00,0.000000000000000000e+00,0.000000000000000000e+00,5.648565749335126895e+00,-1.881247403445163835e+00
2.053124999999994191e-03,0.000000000000000000e+00,0.000000000000000000e+00,3.254904466852957812e-02,0.000000000000000000e+00,0.000000000000000000e+00,2.885882492478664130e+00,2.921191971894393280e+00,1.499739010914815873e+00,0.000000000000000000e+00,0.000000000000000000e+00,0.000000000000000000e+00,5.789577416156229894e+00,-1.928924912926188062e+00
2.103124999999993888e-03,0.000000000000000000e+00,0.000000000000000000e+00,3.311887475172944212e-02,0.000000000000000000e+00,0.000000000000000000e+00,2.002291302288505292e+01,2.971298847324596260e+00,1.602702017208362584e+00,0.000000000000000000e+00,0.000000000000000000e+00,0.000000000000000000e+00,5.930593557284487893e+00,-1.976584675849308415e+00
2.153124999999993586e-03,0.000000000000000000e+00,0.000000000000000000e+00,3.452314583036868861e-02,0.000000000000000000e+00,0.000000000000000000e+00,3.610477301451586385e+01,3.146693570475814994e+00,1.464823513939799149e+00,0.000000000000000000e+00,0.000000000000000000e+00,0.000000000000000000e+00,6.071612051310710356e+00,-2.023772764198443763e+00
2.203124999999993283e-03,0.000000000000000000e+00,0.000000000000000000e+00,3.670674113592056753e-02,0.000000000000000000e+00,0.000000000000000000e+00,5.067541518453749205e+01,3.425352359433747829e+00,1.170879413751995335e+00,0.000000000000000000e+00,0.000000000000000000e+00,0.000000000000000000e+00,6.212631421439064994e+00,-2.070610352507310736e+00
2.278124999999993263e-03,0.000000000000000000e+00,0.000000000000000000e+00,4.111126131647963727e-02,0.000000000000000000e+00,0.000000000000000000e+00,6.670589744037198443e+01,3.955087556893513323e+00,6.368611921929402397e-01,0.000000000000000000e+00,0.000000000000000000e+00,0.000000000000000000e+00,6.424159369780254814e+00,-2.140903237260146419e+00
2.328124999999993394e-03,0.000000000000000000e+00,0.000000000000000000e+00,4.465518866918888330e-02,0.000000000000000000e+00,0.000000000000000000e+00,7.508835226196580948e+01,4.250365292531094852e+00,3.101302845302261746e-01,0.000000000000000000e+00,0.000000000000000000e+00,0.000000000000000000e+00,6.565449306462569190e+00,-2.188185845388455508e+00
2.378124999999993525e-03,0.000000000000000000e+00,0.000000000000000000e+00,4.858305145791889240e-02,0.000000000000000000e+00,0.000000000000000000e+00,8.200614498967799193e+01,4.439484795932571615e+00,4.554768558605107320e-03,0.000000000000000000e+00,0.000000000000000000e+00,0.000000000000000000e+00,6.706190283845337774e+00,-2.235746384164587486e+00
2.428124999999993656e-03,0.000000000000000000e+00,0.000000000000000000e+00,5.279063933134359177e-02,0.000000000000000000e+00,0.000000000000000000e+00,8.632436395206592294e+01,4.502381505094585457e+00,-2.996504058627460498e-01,0.000000000000000000e+00,0.000000000000000000e+00,0.000000000000000000e+00,6.847421675843667010e+00,-2.283282777178907708e+00
2.478124999999993788e-03,0.000000000000000000e+00,0.000000000000000000e+00,5.714534667782605187e-02,0.000000000000000000e+00,0.000000000000000000e+00,8.785762307049162700e+01,4.439507467140629160e+00,-5.938202121851275939e-01,0.000000000000000000e+00,0.000000000000000000e+00,0.000000000000000000e+00,6.988214978566723801e+00,-2.330574063223288306e+00
2.503124999999993636e-03,0.000000000000000000e+00,0.000000000000000000e+00,5.933357225409120056e-02,0.000000000000000000e+00,0.000000000000000000e+00,8.740625404739861892e+01,4.363562654559586917e+00,-7.245309665929828835e-01,0.000000000000000000e+00,0.000000000000000000e+00,0.000000000000000000e+00,7.058762261167234264e+00,-2.354149443356477356e+00
2.553124999999993334e-03,0.000000000000000000e+00,0.000000000000000000e+00,6.364263137075727716e-02,0.000000000000000000e+00,0.000000000000000000e+00,8.462829547665627672e+01,4.143364145167997670e+00,-9.093867424702655189e-01,0.000000000000000000e+00,0.000000000000000000e+00,0.000000000000000000e+00,7.199817268681106164e+00,-2.401331161306376583e+00
2.603124999999993031e-03,0.000000000000000000e+00,0.000000000000000000e+00,6.775596399127854774e-02,0.000000000000000000e+00,0.000000000000000000e+00,7.952705590859409313e+01,3.878092154528866686e+00,-9.996122948413219689e-01,0.000000000000000000e+00,0.000000000000000000e+00,0.000000000000000000e+00,7.340840383633330468e+00,-2.448549043556018656e+00
2.653124999999992729e-03,0.000000000000000000e+00,0.000000000000000000e+00,7.157087224997060737e-02,0.000000000000000000e+00,0.000000000000000000e+00,7.279234939280470940e+01,3.595909312733579277e+00,-1.022766706356235122e+00,0.000000000000000000e+00,0.000000000000000000e+00,0.000000000000000000e+00,7.481850369112360788e+00,-2.495847279215319681e+00
2.703124999999992426e-03,0.000000000000000000e+00,0.000000000000000000e+00,7.500003595026034919e-02,0.000000000000000000e+00,0.000000000000000000e+00,6.407188730573807334e+01,3.348326190390233048e+00,-1.067878921565978745e+00,0.000000000000000000e+00,0.000000000000000000e+00,0.000000000000000000e+00,7.622855553510045290e+00,-2.543014089963220759e+00
2.753124999999992124e-03,0.000000000000000000e+00,0.000000000000000000e+00,7.795244273542828450e-02,0.000000000000000000e+00,0.000000000000000000e+00,5.351642951401377246e+01,3.364091781220999611e+00,-1.421778775414971330e+00,0.000000000000000000e+00,0.000000000000000000e+00,0.000000000000000000e+00,7.763857400761620120e+00,-2.590148841161533433e+00
2.803124999999991821e-03,0.000000000000000000e+00,0.000000000000000000e+00,8.022144053931548613e-02,0.000000000000000000e+00,0.000000000000000000e+00,3.653244518270462748e+01,3.051938525304537464e+00,-1.759029074676350612e+00,0.000000000000000000e+00,0.000000000000000000e+00,0.000000000000000000e+00,7.904856991826216372e+00,-2.637742472105147229e+00
2.853124999999991519e-03,0.000000000000000000e+00,0.000000000000000000e+00,8.163296154830521068e-02,0.000000000000000000e+00,0.000000000000000000e+00,2.079612147743210926e+01,2.612616209117295085e+00,-1.775335404354025037e+00,0.000000000000000000e+00,0.000000000000000000e+00,0.000000000000000000e+00,8.045909006173809885e+00,-2.684943661354645350e+00
2.903124999999991216e-03,0.000000000000000000e+00,0.000000000000000000e+00,8.231831686266398440e-02,0.000000000000000000e+00,0.000000000000000000e+00,7.366355778007990907e+00,2.148585550819453793e+00,-1.486997920787087146e+00,0.000000000000000000e+00,0.000000000000000000e+00,0.000000000000000000e+00,8.187048898534420971e+00,-2.731682927404822880e+00
2.953124999999990914e-03,0.000000000000000000e+00,0.000000000000000000e+00,8.240259132726605873e-02,0.000000000000000000e+00,0.000000000000000000e+00,-4.485709522579811370e+00,1.783560450585753854e+00,-1.080808715422329147e+00,0.000000000000000000e+00,0.000000000000000000e+00,0.000000000000000000e+00,8.328081159414162826e+00,-2.777944802184661999e+00
3.003124999999990611e-03,0.000000000000000000e+00,0.000000000000000000e+00,8.194818200958338406e-02,0.000000000000000000e+00,0.000000000000000000e+00,-1.358002709522540208e+01,1.603564765936855485e+00,-7.578466516685262722e-01,0.000000000000000000e+00,0.000000000000000000e+00,0.000000000000000000e+00,8.469076155617219825e+00,-2.824104051513642410e+00
3.053124999999990308e-03,0.000000000000000000e+00,0.000000000000000000e+00,8.110323639227240422e-02,0.000000000000000000e+00,0.000000000000000000e+00,-1.998824779430438880e+01,1.309482114742055670e+00,-5.868519766044898445e-01,0.000000000000000000e+00,0.000000000000000000e+00,0.000000000000000000e+00,8.610063354658398893e+00,-2.870664452766570562e+00
3.103124999999990006e-03,0.000000000000000000e+00,0.000000000000000000e+00,8.000769404340504765e-02,0.000000000000000000e+00,0.000000000000000000e+00,-2.338413137639037132e+01,1.140271677111471371e+00,1.300419258030472425e-01,0.000000000000000000e+00,0.000000000000000000e+00,0.000000000000000000e+00,8.751045900095711261e+00,-2.917705074482700667e+00
3.153124999999989703e-03,0.000000000000000000e+00,0.000000000000000000e+00,7.882446789086540451e-02,0.000000000000000000e+00,0.000000000000000000e+00,-2.371638896928727647e+01,1.380551960568805026e+00,5.625587464318793085e-01,0.000000000000000000e+00,0.000000000000000000e+00,0.000000000000000000e+00,8.892026022413777042e+00,-2.964688706750788771e+00
3.203124999999989401e-03,0.000000000000000000e+00,0.000000000000000000e+00,7.767411706566033913e-02,0.000000000000000000e+00,0.000000000000000000e+00,-2.218088422407818427e+01,1.615280809417458441e+00,7.334054092904304101e-01,0.000000000000000000e+00,0.000000000000000000e+00,0.000000000000000000e+00,9.033005272507486083e+00,-3.011565237371843118e+00
3.278124999999989381e-03,0.000000000000000000e+00,0.000000000000000000e+00,7.616562320299470612e-02,0.000000000000000000e+00,0.000000000000000000e+00,-1.778608983524585341e+01,1.904977556557626128e+00,8.002126065992359871e-01,0.000000000000000000e+00,0.000000000000000000e+00,0.000000000000000000e+00,9.244475396917579246e+00,-3.081825898116158591e+00
3.328124999999989512e-03,0.000000000000000000e+00,0.000000000000000000e+00,7.538041379654487895e-02,0.000000000000000000e+00,0.000000000000000000e+00,-1.361898672295051682e+01,2.107698671480111585e+00,7.710956796005733471e-01,0.000000000000000000e+00,0.000000000000000000e+00,0.000000000000000000e+00,9.385167040860405763e+00,-3.128642926586070239e+00
3.378124999999989643e-03,0.000000000000000000e+00,0.000000000000000000e+00,7.483184254804269020e-02,0.000000000000000000e+00,0.000000000000000000e+00,-8.331623096959146935e+00,2.315549462063277275e+00,7.111253949882668790e-01,0.000000000000000000e+00,0.000000000000000000e+00,0.000000000000000000e+00,9.526442379948006689e+00,-3.175493172272553011e+00
3.403124999999990359e-03,0.000000000000000000e+00,0.000000000000000000e+00,7.466035608031156012e-02,0.000000000000000000e+00,0.000000000000000000e+00,-5.462811207059218965e+00,2.539643362756592193e+00,7.975984488235368097e-01,0.000000000000000000e+00,0.000000000000000000e+00,0.000000000000000000e+00,9.597020394242070651e+00,-3.198940185186716967e+00
3.459374999999991537e-03,0.000000000000000000e+00,0.000000000000000000e+00,7.452756190070142228e-02,0.000000000000000000e+00,0.000000000000000000e+00,8.412569577641838547e-01,2.609642707602849665e+00,7.072379002694181294e-01,0.000000000000000000e+00,0.000000000000000000e+00,0.000000000000000000e+00,9.755626612056587987e+00,-3.251904841379275712e+00
3.509374999999991234e-03,0.000000000000000000e+00,0.000000000000000000e+00,7.472900727303394275e-02,0.000000000000000000e+00,0.000000000000000000e+00,7.153945642335320265e+00,2.668522578502420028e+00,6.525153802209314735e-01,0.000000000000000000e+00,0.000000000000000000e+00,0.000000000000000000e+00,9.896580480997107188e+00,-3.298948526616001686e+00
3.559374999999990932e-03,0.000000000000000000e+00,0.000000000000000000e+00,7.524118825515359321e-02,0.000000000000000000e+00,0.000000000000000000e+00,1.310422764322047939e+01,2.738781365005415580e+00,5.916259435812083467e-01,0.000000000000000000e+00,0.000000000000000000e+00,0.000000000000000000e+00,1.003754371312581917e+01,-3.345949895575104804e+00
3.609374999999990629e-03,0.000000000000000000e+00,0.000000000000000000e+00,7.604887810417852723e-02,0.000000000000000000e+00,0.000000000000000000e+00,1.910636380326802097e+01,2.835269068735610354e+00,5.171205874415116810e-01,0.000000000000000000e+00,0.000000000000000000e+00,0.000000000000000000e+00,1.017835967894734850e+01,-3.392923280624298155e+00
3.659374999999990326e-03,0.000000000000000000e+00,0.000000000000000000e+00,7.713678004766733043e-02,0.000000000000000000e+00,0.000000000000000000e+00,2.431368733681950189e+01,2.934854173080851947e+00,4.342469953791436854e-01,0.000000000000000000e+00,0.000000000000000000e+00,0.000000000000000000e+00,1.031938115444007842e+01,-3.439950286526543888e+00
3.709374999999990024e-03,0.000000000000000000e+00,0.000000000000000000e+00,7.846324702178893162e-02,0.000000000000000000e+00,0.000000000000000000e+00,2.861107954142521592e+01,3.047122582560718662e+00,3.245878798715438607e-01,0.000000000000000000e+00,0.000000000000000000e+00,0.000000000000000000e+00,1.046039727858588186e+01,-3.487008600999741859e+00
3.759374999999989721e-03,0.000000000000000000e+00,0.000000000000000000e+00,7.998165939519816248e-02,0.000000000000000000e+00,0.000000000000000000e+00,3.201304861319670181e+01,3.144225366725394544e+00,2.029469186309286466e-01,0.000000000000000000e+00,0.000000000000000000e+00,0.000000000000000000e+00,1.060140930963097183e+01,-3.534103391877984279e+00
3.809374999999989419e-03,0.000000000000000000e+00,0.000000000000000000e+00,8.165029433688743288e-02,0.000000000000000000e+00,0.000000000000000000e+00,3.458537745109790507e+01,3.204255906699846612e+00,8.349241258391885967e-02,0.000000000000000000e+00,0.000000000000000000e+00,0.000000000000000000e+00,1.074241822087147646e+01,-3.581261466348634404e+00
3.884374999999989399e-03,0.000000000000000000e+00,0.000000000000000000e+00,8.433584500733383449e-02,0.000000000000000000e+00,0.000000000000000000e+00,3.683293315360808151e+01,3.204790711696525740e+00,-8.257031009100380958e-02,0.000000000000000000e+00,0.000000000000000000e+00,0.000000000000000000e+00,1.095392769970269953e+01,-3.651985934800353384e+00
3.934374999999989096e-03,0.000000000000000000e+00,0.000000000000000000e+00,8.619300833854218191e-02,0.000000000000000000e+00,0.000000000000000000e+00,3.745836526223125418e+01,3.162812671108088391e+00,-1.888717402782762178e-01,0.000000000000000000e+00,0.000000000000000000e+00,0.000000000000000000e+00,1.109494238187309811e+01,-3.699074563170013707e+00
3.984374999999988794e-03,0.000000000000000000e+00,0.000000000000000000e+00,8.803689541605688729e-02,0.000000000000000000e+00,0.000000000000000000e+00,3.630217676250805425e+01,3.091435213970452178e+00,-2.815906239804946698e-01,0.000000000000000000e+00,0.000000000000000000e+00,0.000000000000000000e+00,1.123593665086878879e+01,-3.746125860796350793e+00
4.034374999999988491e-03,0.000000000000000000e+00,0.000000000000000000e+00,8.980425646480334756e-02,0.000000000000000000e+00,0.000000000000000000e+00,3.439219264737118209e+01,3.001672066752520518e+00,-3.566219993512619868e-01,0.000000000000000000e+00,0.000000000000000000e+00,0.000000000000000000e+00,1.137693507411868410e+01,-3.793159616265521894e+00
4.084374999999988189e-03,0.000000000000000000e+00,0.000000000000000000e+00,9.146338677427073849e-02,0.000000000000000000e+00,0.000000000000000000e+00,3.197549694502740181e+01,2.898184270000315976e+00,-4.074601644411822710e-01,0.000000000000000000e+00,0.000000000000000000e+00,0.000000000000000000e+00,1.151794255438223225e+01,-3.840229302764186947e+00
4.109374999999988905e-03,0.000000000000000000e+00,0.000000000000000000e+00,9.225354425190135377e-02,0.000000000000000000e+00,0.000000000000000000e+00,3.069369777285864842e+01,2.837936995207338775e+00,-4.279183466134141023e-01,0.000000000000000000e+00,0.000000000000000000e+00,0.000000000000000000e+00,1.158848504906352694e+01,-3.864070430982292415e+00
4.159374999999990337e-03,0.000000000000000000e+00,0.000000000000000000e+00,9.373682684735401560e-02,0.000000000000000000e+00,0.000000000000000000e+00,2.831608600815930643e+01,2.716459771095110831e+00,-4.285108942862472237e-01,0.000000000000000000e+00,0.000000000000000000e+00,0.000000000000000000e+00,1.172952571860932025e+01,-3.911175351016789925e+00
4.209374999999991769e-03,0.000000000000000000e+00,0.000000000000000000e+00,9.507872615839471631e-02,0.000000000000000000e+00,0.000000000000000000e+00,2.536631431392871505e+01,2.600617339129886574e+00,-4.166824070334366192e-01,0.000000000000000000e+00,0.000000000000000000e+00,0.000000000000000000e+00,1.187053279214717882e+01,-3.957826058677472503e+00
4.259374999999991467e-03,0.000000000000000000e+00,0.000000000000000000e+00,9.627000180212909319e-02,0.000000000000000000e+00,0.000000000000000000e+00,2.235435415912986201e+01,2.514119416263336237e+00,-3.903825429253424129e-01,0.000000000000000000e+00,0.000000000000000000e+00,0.000000000000000000e+00,1.201152869533492762e+01,-4.004661673498474350e+00
4.309374999999991164e-03,0.000000000000000000e+00,0.000000000000000000e+00,9.731569229549230649e-02,0.000000000000000000e+00,0.000000000000000000e+00,1.955095523823158743e+01,2.454165249660087422e+00,-3.458247448815907621e-01,0.000000000000000000e+00,0.000000000000000000e+00,0.000000000000000000e+00,1.215252271526504124e+01,-4.051684737446962004e+00
4.359374999999990861e-03,0.000000000000000000e+00,0.000000000000000000e+00,9.823004843633133254e-02,0.000000000000000000e+00,0.000000000000000000e+00,1.708712687605495262e+01,2.411983507075490696e+00,-2.867871702913855625e-01,0.000000000000000000e+00,0.000000000000000000e+00,0.000000000000000000e+00,1.229351571547039335e+01,-4.098710075213213955e+00
4.409374999999990559e-03,0.000000000000000000e+00,0.000000000000000000e+00,9.903319195464113656e-02,0.000000000000000000e+00,0.000000000000000000e+00,1.510222515091550655e+01,2.399156920671484006e+00,-2.329553942493595708e-01,0.000000000000000000e+00,0.000000000000000000e+00,0.000000000000000000e+00,1.243450829932638868e+01,-4.145736675140053507e+00
4.459374999999990256e-03,0.000000000000000000e+00,0.000000000000000000e+00,9.974751703527881541e-02,0.000000000000000000e+00,0.000000000000000000e+00,1.348291205883120725e+01,2.409230185953020076e+00,-1.793019769420635123e-01,0.000000000000000000e+00,0.000000000000000000e+00,0.000000000000000000e+00,1.257550087773901915e+01,-4.192708586406298288e+00
4.509374999999989954e-03,0.000000000000000000e+00,0.000000000000000000e+00,1.003935598517710776e-01,0.000000000000000000e+00,0.000000000000000000e+00,1.236185089239745416e+01,2.433204944487378008e+00,-1.312652418614996819e-01,0.000000000000000000e+00,0.000000000000000000e+00,0.000000000000000000e+00,1.271638105366391436e+01,-4.239560794278941280e+00
4.559374999999989651e-03,0.000000000000000000e+00,0.000000000000000000e+00,1.009958754508103185e-01,0.000000000000000000e+00,0.000000000000000000e+00,1.172623198509128528e+01,2.461886757071450660e+00,-8.248250757889322160e-02,0.000000000000000000e+00,0.000000000000000000e+00,0.000000000000000000e+00,1.285748776743576727e+01,-4.286464494924994817e+00
4.609374999999989349e-03,0.000000000000000000e+00,0.000000000000000000e+00,1.015800713390535848e-01,0.000000000000000000e+00,0.000000000000000000e+00,1.164226666041786196e+01,2.493007856915744558e+00,-3.790482171969209585e-02,0.000000000000000000e+00,0.000000000000000000e+00,0.000000000000000000e+00,1.299839274014732027e+01,-4.333444297077851282e+00
4.659374999999989046e-03,0.000000000000000000e+00,0.000000000000000000e+00,1.021700326029826439e-01,0.000000000000000000e+00,0.000000000000000000e+00,1.195380924836655545e+01,2.527102092030334202e+00,-2.066019795890958709e-03,0.000000000000000000e+00,0.000000000000000000e+00,0.000000000000000000e+00,1.313947735111145221e+01,-4.380439416044397127e+00
4.709374999999988744e-03,0.000000000000000000e+00,0.000000000000000000e+00,1.027675196331017254e-01,0.000000000000000000e+00,0.000000000000000000e+00,1.194891303465133348e+01,2.564241182680948139e+00,2.538143934711817318e-02,0.000000000000000000e+00,0.000000000000000000e+00,0.000000000000000000e+00,1.328040202347940379e+01,-4.427406493633657014e+00
4.759374999999988441e-03,0.000000000000000000e+00,0.000000000000000000e+00,1.033794027705575574e-01,0.000000000000000000e+00,0.000000000000000000e+00,1.252129322769034481e+01,2.608390494037601481e+00,4.773684501602612484e-02,0.000000000000000000e+00,0.000000000000000000e+00,0.000000000000000000e+00,1.342146907833633485e+01,-4.474350832132786948e+00
4.809374999999988139e-03,0.000000000000000000e+00,0.000000000000000000e+00,1.040367789495426770e-01,0.000000000000000000e+00,0.000000000000000000e+00,1.377422080478338984e+01,2.655670010312985330e+00,6.406228949147682594e-02,0.000000000000000000e+00,0.000000000000000000e+00,0.000000000000000000e+00,1.356240939497593878e+01,-4.521306768933827769e+00
4.859374999999987836e-03,0.000000000000000000e+00,0.000000000000000000e+00,1.047578517528829356e-01,0.000000000000000000e+00,0.000000000000000000e+00,1.506815557809568595e+01,2.700799108838162432e+00,7.335722252611499850e-02,0.000000000000000000e+00,0.000000000000000000e+00,0.000000000000000000e+00,1.370346251059034337e+01,-4.568301161457721804e+00
4.909374999999987534e-03,0.000000000000000000e+00,0.000000000000000000e+00,1.055487295377846857e-01,0.000000000000000000e+00,0.000000000000000000e+00,1.656636804961524234e+01,2.766262502239072774e+00,1.294913787449291365e-01,0.000000000000000000e+00,0.000000000000000000e+00,0.000000000000000000e+00,1.384441524600621598e+01,-4.615313825939056258e+00
4.959374999999987231e-03,0.000000000000000000e+00,0.000000000000000000e+00,1.064147402152869765e-01,0.000000000000000000e+00,0.000000000000000000e+00,1.807443934695914223e+01,2.895694073615473485e+00,2.626548473393367500e-01,0.000000000000000000e+00,0.000000000000000000e+00,0.000000000000000000e+00,1.398545729861006315e+01,-4.662308452191991748e+00
5.009374999999986929e-03,0.000000000000000000e+00,0.000000000000000000e+00,1.073545142187639079e-01,0.000000000000000000e+00,0.000000000000000000e+00,1.951655976729437114e+01,2.996531700846668755e+00,2.643864004498848730e-01,0.000000000000000000e+00,0.000000000000000000e+00,0.000000000000000000e+00,1.412641988823612849e+01,-4.709300824348686021e+00
5.059374999999986626e-03,0.000000000000000000e+00,0.000000000000000000e+00,1.083565944404696058e-01,0.000000000000000000e+00,0.000000000000000000e+00,2.056848770502896073e+01,3.023240329023721085e+00,2.381579220607192848e-01,0.000000000000000000e+00,0.000000000000000000e+00,0.000000000000000000e+00,1.426745316430008081e+01,-4.756332180972124846e+00
5.109374999999986323e-03,0.000000000000000000e+00,0.000000000000000000e+00,1.094151536079853576e-01,0.000000000000000000e+00,0.000000000000000000e+00,2.177181741857558706e+01,3.017065144265902887e+00,1.774705672165371451e-01,0.000000000000000000e+00,0.000000000000000000e+00,0.000000000000000000e+00,1.440842356978807359e+01,-4.803396745519812328e+00
5.209374999999986586e-03,0.000000000000000000e+00,0.000000000000000000e+00,1.116031818762855676e-01,0.000000000000000000e+00,0.000000000000000000e+00,2.199493727548832567e+01,2.937869437618805701e+00,4.011168580498638420e-02,0.000000000000000000e+00,0.000000000000000000e+00,0.000000000000000000e+00,1.469044841203575302e+01,-4.897492252904977583e+00
5.309374999999986848e-03,0.000000000000000000e+00,0.000000000000000000e+00,1.137845350869793881e-01,0.000000000000000000e+00,0.000000000000000000e+00,2.163043718757343115e+01,2.842661650294993070e+00,-8.755520444282183234e-02,0.000000000000000000e+00,0.000000000000000000e+00,0.000000000000000000e+00,1.497242914180750972e+01,-4.991498274796190238e+00
5.359374999999986545e-03,0.000000000000000000e+00,0.000000000000000000e+00,1.148187658716998683e-01,0.000000000000000000e+00,0.000000000000000000e+00,2.152730173466654051e+01,2.826551495816654214e+00,-1.485117410790475767e-01,0.000000000000000000e+00,0.000000000000000000e+00,0.000000000000000000e+00,1.511312120301177409e+01,-5.037467221191925582e+00
5.409374999999986243e-03,0.000000000000000000e+00,0.000000000000000000e+00,1.158630026309025313e-01,0.000000000000000000e+00,0.000000000000000000e+00,1.895325840757628910e+01,2.815029516678067445e+00,-1.687342288073089003e-01,0.000000000000000000e+00,0.000000000000000000e+00,0.000000000000000000e+00,1.525501360471402812e+01,-5.086635017849609142e+00
5.459374999999985940e-03,0.000000000000000000e+00,0.000000000000000000e+00,1.167509971403468405e-01,0.000000000000000000e+00,0.000000000000000000e+00,1.749855552944196546e+01,2.924219357359408189e+00,-3.044846861616143374e-01,0.000000000000000000e+00,0.000000000000000000e+00,0.000000000000000000e+00,1.539465671207470088e+01,-5.132318729240327393e+00
5.484374999999985789e-03,0.000000000000000000e+00,0.000000000000000000e+00,1.171591553604303115e-01,0.000000000000000000e+00,0.000000000000000000e+00,1.710020812469900164e+01,3.014249797102829476e+00,-4.207642292021530062e-01,0.000000000000000000e+00,0.000000000000000000e+00,0.000000000000000000e+00,1.546651830036662290e+01,-5.154906623823339196e+00
5.509374999999985638e-03,0.000000000000000000e+00,0.000000000000000000e+00,1.175860808277705838e-01,0.000000000000000000e+00,0.000000000000000000e+00,1.564354313034652399e+01,3.013261384779915897e+00,-4.250997429377224579e-01,0.000000000000000000e+00,0.000000000000000000e+00,0.000000000000000000e+00,1.553602449755902093e+01,-5.179772193438122230e+00
5.559374999999985335e-03,0.000000000000000000e+00,0.000000000000000000e+00,1.183073517542812536e-01,0.000000000000000000e+00,0.000000000000000000e+00,1.293445967270584163e+01,2.913415324864175648e+00,-3.158635930215116239e-01,0.000000000000000000e+00,0.000000000000000000e+00,0.000000000000000000e+00,1.567728071100330567e+01,-5.227330773675954667e+00
5.609374999999985033e-03,0.000000000000000000e+00,0.000000000000000000e+00,1.189029817760474395e-01,0.000000000000000000e+00,0.000000000000000000e+00,1.200334167614359693e+01,2.818719338688421061e+00,-1.808224465135871983e-01,0.000000000000000000e+00,0.000000000000000000e+00,0.000000000000000000e+00,1.581845447272707617e+01,-5.277560428830920358e+00
5.659374999999984730e-03,0.000000000000000000e+00,0.000000000000000000e+00,1.194883070684049781e-01,0.000000000000000000e+00,0.000000000000000000e+00,1.136903947579193819e+01,2.692314710058858918e+00,4.122464222755444635e-02,0.000000000000000000e+00,0.000000000000000000e+00,0.000000000000000000e+00,1.595956786507825242e+01,-5.324899818848305877e+00
5.709374999999984428e-03,0.000000000000000000e+00,0.000000000000000000e+00,1.200731454177755009e-01,0.000000000000000000e+00,0.000000000000000000e+00,1.193515327293460437e+01,2.571726695626554982e+00,1.154034212362951423e-01,0.000000000000000000e+00,0.000000000000000000e+00,0.000000000000000000e+00,1.610063755561971277e+01,-5.369359212484659416e+00
5.759374999999984125e-03,0.000000000000000000e+00,0.000000000000000000e+00,1.207108890184718231e-01,0.000000000000000000e+00,0.000000000000000000e+00,1.364674930392915009e+01,2.507750912537665133e+00,7.825327388511005289e-02,0.000000000000000000e+00,0.000000000000000000e+00,0.000000000000000000e+00,1.624119144130939318e+01,-5.414242342773712302e+00
5.809374999999983823e-03,0.000000000000000000e+00,0.000000000000000000e+00,1.214312653769053368e-01,0.000000000000000000e+00,0.000000000000000000e+00,1.511698094222976607e+01,2.485372597992828059e+00,-1.289852382136159707e-02,0.000000000000000000e+00,0.000000000000000000e+00,0.000000000000000000e+00,1.638271836059072584e+01,-5.460789989088723928e+00
5.859374999999983520e-03,0.000000000000000000e+00,0.000000000000000000e+00,1.222237448011820188e-01,0.000000000000000000e+00,0.000000000000000000e+00,1.661936878317769484e+01,2.476152245735936841e+00,-1.085211384110928989e-01,0.000000000000000000e+00,0.000000000000000000e+00,0.000000000000000000e+00,1.652313125847582853e+01,-5.508114848011876674e+00
5.909374999999983218e-03,0.000000000000000000e+00,0.000000000000000000e+00,1.230750611736656508e-01,0.000000000000000000e+00,0.000000000000000000e+00,1.747055521383251531e+01,2.639225186182552640e+00,-1.297246359277639816e-01,0.000000000000000000e+00,0.000000000000000000e+00,0.000000000000000000e+00,1.666439099001039992e+01,-5.555862043085618929e+00
5.959374999999982915e-03,0.000000000000000000e+00,0.000000000000000000e+00,1.239910878824168061e-01,0.000000000000000000e+00,0.000000000000000000e+00,1.855871735900104369e+01,2.612013874695153337e+00,-2.555107402554530061e-01,0.000000000000000000e+00,0.000000000000000000e+00,0.000000000000000000e+00,1.680556307888052814e+01,-5.603124313382168431e+00
6.009374999999982613e-03,0.000000000000000000e+00,0.000000000000000000e+00,1.248991887293537245e-01,0.000000000000000000e+00,0.000000000000000000e+00,1.816918833795637056e+01,2.547508112224384558e+00,-2.438342675744643306e-01,0.000000000000000000e+00,0.000000000000000000e+00,0.000000000000000000e+00,1.694667145298989652e+01,-5.649828779210705143e+00
6.059374999999982310e-03,0.000000000000000000e+00,0.000000000000000000e+00,1.258314912015643938e-01,0.000000000000000000e+00,0.000000000000000000e+00,1.927352430390870097e+01,2.481145021178624344e+00,-2.553345862404360345e-01,0.000000000000000000e+00,0.000000000000000000e+00,0.000000000000000000e+00,1.708773411154079724e+01,-5.696502094769356539e+00
6.109374999999982007e-03,0.000000000000000000e+00,0.000000000000000000e+00,1.268348227853920429e-01,0.000000000000000000e+00,0.000000000000000000e+00,2.082142099666278767e+01,2.480415745427162033e+00,-2.917854245157542326e-01,0.000000000000000000e+00,0.000000000000000000e+00,0.000000000000000000e+00,1.722876451413942078e+01,-5.743452912242547725e+00
6.159374999999981705e-03,0.000000000000000000e+00,0.000000000000000000e+00,1.279058631227289744e-01,0.000000000000000000e+00,0.000000000000000000e+00,2.207409813338711402e+01,2.521505648644730702e+00,-3.070176479614002973e-01,0.000000000000000000e+00,0.000000000000000000e+00,0.000000000000000000e+00,1.736909617070518053e+01,-5.790482808953476557e+00
6.209374999999981402e-03,0.000000000000000000e+00,0.000000000000000000e+00,1.290286817918414042e-01,0.000000000000000000e+00,0.000000000000000000e+00,2.280195563053635510e+01,2.616506982486929811e+00,-2.942710203375958344e-01,0.000000000000000000e+00,0.000000000000000000e+00,0.000000000000000000e+00,1.751078701127740089e+01,-5.837781186209090478e+00
6.259374999999981100e-03,0.000000000000000000e+00,0.000000000000000000e+00,1.301745605215202106e-01,0.000000000000000000e+00,0.000000000000000000e+00,2.306211715498699988e+01,2.674482597661041794e+00,-2.580989053852102422e-01,0.000000000000000000e+00,0.000000000000000000e+00,0.000000000000000000e+00,1.765108485642877412e+01,-5.884765156938513542e+00
6.309374999999980797e-03,0.000000000000000000e+00,0.000000000000000000e+00,1.313269576467641364e-01,0.000000000000000000e+00,0.000000000000000000e+00,2.301420653987484144e+01,2.730343970108951801e+00,-2.245944350864168548e-01,0.000000000000000000e+00,0.000000000000000000e+00,0.000000000000000000e+00,1.779278915429263108e+01,-5.931636091582691783e+00
6.359374999999981362e-03,0.000000000000000000e+00,0.000000000000000000e+00,1.324606882323537960e-01,0.000000000000000000e+00,0.000000000000000000e+00,2.345838212112595400e+01,2.780003612622323761e+00,-2.067625022135186619e-01,0.000000000000000000e+00,0.000000000000000000e+00,0.000000000000000000e+00,1.793315497344528353e+01,-5.978294347901543127e+00
6.409374999999982794e-03,0.000000000000000000e+00,0.000000000000000000e+00,1.336194310928220941e-01,0.000000000000000000e+00,0.000000000000000000e+00,2.294126797408946672e+01,2.801224500607783163e+00,-1.631999585185609503e-01,0.000000000000000000e+00,0.000000000000000000e+00,0.000000000000000000e+00,1.807442511350891579e+01,-6.026078133950025340e+00
6.459374999999984227e-03,0.000000000000000000e+00,0.000000000000000000e+00,1.347502871019615189e-01,0.000000000000000000e+00,0.000000000000000000e+00,2.258821856281311113e+01,2.793486011384809675e+00,-1.563701227724132725e-01,0.000000000000000000e+00,0.000000000000000000e+00,0.000000000000000000e+00,1.821554286486075114e+01,-6.073119665209208762e+00
6.509374999999983924e-03,0.000000000000000000e+00,0.000000000000000000e+00,1.358483021584380446e-01,0.000000000000000000e+00,0.000000000000000000e+00,2.156563323997246329e+01,2.773783889220769350e+00,-1.296771474557650294e-01,0.000000000000000000e+00,0.000000000000000000e+00,0.000000000000000000e+00,1.835659675637364785e+01,-6.119824328532663671e+00
6.559374999999983621e-03,0.000000000000000000e+00,0.000000000000000000e+00,1.369138598721347522e-01,0.000000000000000000e+00,0.000000000000000000e+00,2.109216323103589730e+01,2.777868242283454858e+00,-1.270359028266642432e-01,0.000000000000000000e+00,0.000000000000000000e+00,0.000000000000000000e+00,1.849762636544112837e+01,-6.166611049211928375e+00
6.609374999999983319e-03,0.000000000000000000e+00,0.000000000000000000e+00,1.379503692393206082e-01,0.000000000000000000e+00,0.000000000000000000e+00,2.042739458806952157e+01,2.786412954723655133e+00,-1.353072052047319118e-01,0.000000000000000000e+00,0.000000000000000000e+00,0.000000000000000000e+00,1.863863897390714541e+01,-6.213606565691021544e+00
6.659374999999983016e-03,0.000000000000000000e+00,0.000000000000000000e+00,1.389514000345462574e-01,0.000000000000000000e+00,0.000000000000000000e+00,1.973971983728732837e+01,2.787024121317566383e+00,-1.368839790562410008e-01,0.000000000000000000e+00,0.000000000000000000e+00,0.000000000000000000e+00,1.877963997311389832e+01,-6.260668869313215978e+00
6.709374999999982714e-03,0.000000000000000000e+00,0.000000000000000000e+00,1.399209126786512825e-01,0.000000000000000000e+00,0.000000000000000000e+00,1.917216200359628431e+01,2.766102735220085762e+00,-1.344261309825467432e-01,0.000000000000000000e+00,0.000000000000000000e+00,0.000000000000000000e+00,1.892063331941371729e+01,-6.307706490914197772e+00
6.759374999999982411e-03,0.000000000000000000e+00,0.000000000000000000e+00,1.408664749433696239e-01,0.000000000000000000e+00,0.000000000000000000e+00,1.865972582320983975e+01,2.732626046209592374e+00,-1.301647494600482735e-01,0.000000000000000000e+00,0.000000000000000000e+00,0.000000000000000000e+00,1.906125123079907624e+01,-6.354702907082222296e+00
6.809374999999982109e-03,0.000000000000000000e+00,0.000000000000000000e+00,1.417978675440013936e-01,0.000000000000000000e+00,0.000000000000000000e+00,1.858703977946027663e+01,2.698723097766758006e+00,-1.296055696522024625e-01,0.000000000000000000e+00,0.000000000000000000e+00,0.000000000000000000e+00,1.920261417083550270e+01,-6.401717916452886570e+00
6.859374999999981806e-03,0.000000000000000000e+00,0.000000000000000000e+00,1.427228119124924199e-01,0.000000000000000000e+00,0.000000000000000000e+00,1.841769809832628724e+01,2.669444914466690300e+00,-1.345562450032047053e-01,0.000000000000000000e+00,0.000000000000000000e+00,0.000000000000000000e+00,1.934327037054830356e+01,-6.448817906397904309e+00
6.909374999999981504e-03,0.000000000000000000e+00,0.000000000000000000e+00,1.436447240419391758e-01,0.000000000000000000e+00,0.000000000000000000e+00,1.845274504306476260e+01,2.652769104945110534e+00,-1.420566545338678988e-01,0.000000000000000000e+00,0.000000000000000000e+00,0.000000000000000000e+00,1.948459522963707613e+01,-6.495741205447851385e+00
6.959374999999981201e-03,0.000000000000000000e+00,0.000000000000000000e+00,1.445643731474932081e-01,0.000000000000000000e+00,0.000000000000000000e+00,1.833832852363667598e+01,2.641001556903930236e+00,-1.560060806985717752e-01,0.000000000000000000e+00,0.000000000000000000e+00,0.000000000000000000e+00,1.962528896150899982e+01,-6.542569663923577750e+00
7.009374999999980899e-03,0.000000000000000000e+00,0.000000000000000000e+00,1.454896573504958768e-01,0.000000000000000000e+00,0.000000000000000000e+00,1.866720270141227189e+01,2.638381418532305567e+00,-1.734444437561258601e-01,0.000000000000000000e+00,0.000000000000000000e+00,0.000000000000000000e+00,1.976657710827673853e+01,-6.589544085043185007e+00
7.059374999999980596e-03,0.000000000000000000e+00,0.000000000000000000e+00,1.464233669627642842e-01,0.000000000000000000e+00,0.000000000000000000e+00,1.868690608998609548e+01,2.636590237120215452e+00,-1.850872563156269468e-01,0.000000000000000000e+00,0.000000000000000000e+00,0.000000000000000000e+00,1.990730652127875899e+01,-6.636578712738494090e+00
7.109374999999980294e-03,0.000000000000000000e+00,0.000000000000000000e+00,1.473295279972444694e-01,0.000000000000000000e+00,0.000000000000000000e+00,1.756085424392896854e+01,2.609405212329320545e+00,-1.613791023737682351e-01,0.000000000000000000e+00,0.000000000000000000e+00,0.000000000000000000e+00,2.004856017899296461e+01,-6.683601875495238431e+00
7.159374999999979991e-03,0.000000000000000000e+00,0.000000000000000000e+00,1.481363872865567033e-01,0.000000000000000000e+00,0.000000000000000000e+00,1.472075925214871006e+01,2.553614269842928497e+00,-1.043871684509964648e-01,0.000000000000000000e+00,0.000000000000000000e+00,0.000000000000000000e+00,2.018932277057617952e+01,-6.730509760193302604e+00
7.209374999999979688e-03,0.000000000000000000e+00,0.000000000000000000e+00,1.488271325133720679e-01,0.000000000000000000e+00,0.000000000000000000e+00,1.289891097310617951e+01,2.533522055532207773e+00,-7.952305117246122323e-02,0.000000000000000000e+00,0.000000000000000000e+00,0.000000000000000000e+00,2.033054464297758201e+01,-6.777320766583700973e+00
7.259374999999981121e-03,0.000000000000000000e+00,0.000000000000000000e+00,1.494499845364408441e-01,0.000000000000000000e+00,0.000000000000000000e+00,1.233655031410412839e+01,2.539519022341081733e+00,-7.757292469882526298e-02,0.000000000000000000e+00,0.000000000000000000e+00,0.000000000000000000e+00,2.047172484530840109e+01,-6.824260863236825791e+00
7.309374999999982553e-03,0.000000000000000000e+00,0.000000000000000000e+00,1.500713905850046825e-01,0.000000000000000000e+00,0.000000000000000000e+00,1.263460469988148205e+01,2.534489400162800887e+00,-7.426137020844246484e-02,0.000000000000000000e+00,0.000000000000000000e+00,0.000000000000000000e+00,2.061276843297400418e+01,-6.871402799764821268e+00
7.359374999999983118e-03,0.000000000000000000e+00,0.000000000000000000e+00,1.507202288771758991e-01,0.000000000000000000e+00,0.000000000000000000e+00,1.348881201620755022e+01,2.531172336994971683e+00,-7.852871134193553648e-02,0.000000000000000000e+00,0.000000000000000000e+00,0.000000000000000000e+00,2.075312338044367166e+01,-6.918430927012347631e+00
7.409374999999982815e-03,0.000000000000000000e+00,0.000000000000000000e+00,1.514383582379124626e-01,0.000000000000000000e+00,0.000000000000000000e+00,1.519843189578309861e+01,2.529757774246512270e+00,-7.756561201018809248e-02,0.000000000000000000e+00,0.000000000000000000e+00,0.000000000000000000e+00,2.089414910385575652e+01,-6.965385056439641787e+00
7.459374999999982513e-03,0.000000000000000000e+00,0.000000000000000000e+00,1.522457274982497721e-01,0.000000000000000000e+00,0.000000000000000000e+00,1.697656756685742963e+01,2.544299110539060660e+00,-1.007720673663600047e-01,0.000000000000000000e+00,0.000000000000000000e+00,0.000000000000000000e+00,2.103517639208890344e+01,-7.012303952275571461e+00
7.509374999999982210e-03,0.000000000000000000e+00,0.000000000000000000e+00,1.531413457072549889e-01,0.000000000000000000e+00,0.000000000000000000e+00,1.854132621933670322e+01,2.684313825107229157e+00,-2.043454241229047397e-01,0.000000000000000000e+00,0.000000000000000000e+00,0.000000000000000000e+00,2.117620372189286826e+01,-7.059278193935186962e+00
7.559374999999981908e-03,0.000000000000000000e+00,0.000000000000000000e+00,1.540751444850269325e-01,0.000000000000000000e+00,0.000000000000000000e+00,1.861995954028213163e+01,2.756503372077924841e+00,-2.614858814572527668e-01,0.000000000000000000e+00,0.000000000000000000e+00,0.000000000000000000e+00,2.131723009236997513e+01,-7.106434475284171270e+00
7.609374999999981605e-03,0.000000000000000000e+00,0.000000000000000000e+00,1.550245534766513111e-01,0.000000000000000000e+00,0.000000000000000000e+00,1.908204589750291902e+01,2.765398005095990985e+00,-2.639183697991384081e-01,0.000000000000000000e+00,0.000000000000000000e+00,0.000000000000000000e+00,2.145825488145256799e+01,-7.153622265987245044e+00
7.659374999999981302e-03,0.000000000000000000e+00,0.000000000000000000e+00,1.559893441087893684e-01,0.000000000000000000e+00,0.000000000000000000e+00,1.950121076352678173e+01,2.750180032648751105e+00,-2.583202277540433967e-01,0.000000000000000000e+00,0.000000000000000000e+00,0.000000000000000000e+00,2.159959766445964746e+01,-7.200664494017752659e+00
7.709374999999981000e-03,0.000000000000000000e+00,0.000000000000000000e+00,1.569690990225245109e-01,0.000000000000000000e+00,0.000000000000000000e+00,1.969614493238785258e+01,2.728939220780330022e+00,-2.546548882166319028e-01,0.000000000000000000e+00,0.000000000000000000e+00,0.000000000000000000e+00,2.174029712499507383e+01,-7.247576948296279298e+00
7.759374999999980697e-03,0.000000000000000000e+00,0.000000000000000000e+00,1.579673841839838999e-01,0.000000000000000000e+00,0.000000000000000000e+00,2.022844070363572655e+01,2.717107438049146673e+00,-2.475842075889233551e-01,0.000000000000000000e+00,0.000000000000000000e+00,0.000000000000000000e+00,2.188156044179673643e+01,-7.294470669369754745e+00
7.809374999999980395e-03,0.000000000000000000e+00,0.000000000000000000e+00,1.589851931153119236e-01,0.000000000000000000e+00,0.000000000000000000e+00,2.049017171578518060e+01,2.711317552339297166e+00,-2.422790479699541422e-01,0.000000000000000000e+00,0.000000000000000000e+00,0.000000000000000000e+00,2.202232990851976879e+01,-7.341427285939579050e+00
7.859374999999980960e-03,0.000000000000000000e+00,0.000000000000000000e+00,1.600201825598871475e-01,0.000000000000000000e+00,0.000000000000000000e+00,2.090412850238148224e+01,2.710768296957489110e+00,-2.393399792738287457e-01,0.000000000000000000e+00,0.000000000000000000e+00,0.000000000000000000e+00,2.216353158180853100e+01,-7.388450670173465795e+00
7.909374999999980657e-03,0.000000000000000000e+00,0.000000000000000000e+00,1.610706951116702978e-01,0.000000000000000000e+00,0.000000000000000000e+00,2.112115405264036028e+01,2.710073000228161888e+00,-2.381866742932548797e-01,0.000000000000000000e+00,0.000000000000000000e+00,0.000000000000000000e+00,2.230435530184289306e+01,-7.435496392702223289e+00
7.959374999999980355e-03,0.000000000000000000e+00,0.000000000000000000e+00,1.621310678111405057e-01,0.000000000000000000e+00,0.000000000000000000e+00,2.129050531738462126e+01,2.708124696629966799e+00,-2.397832515522148600e-01,0.000000000000000000e+00,0.000000000000000000e+00,0.000000000000000000e+00,2.244550925041722778e+01,-7.482523400742513431e+00
8.009374999999980052e-03,0.000000000000000000e+00,0.000000000000000000e+00,1.631933812772857761e-01,0.000000000000000000e+00,0.000000000000000000e+00,2.120561243218409331e+01,2.705054121362765240e+00,-2.448782044033563643e-01,0.000000000000000000e+00,0.000000000000000000e+00,0.000000000000000000e+00,2.258637492975558203e+01,-7.529523835830076450e+00
8.059374999999979750e-03,0.000000000000000000e+00,0.000000000000000000e+00,1.642403125024006483e-01,0.000000000000000000e+00,0.000000000000000000e+00,2.067118447337896114e+01,2.704079853664605793e+00,-2.510334914009643703e-01,0.000000000000000000e+00,0.000000000000000000e+00,0.000000000000000000e+00,2.272749200860101837e+01,-7.576507604570740462e+00
8.109374999999979447e-03,0.000000000000000000e+00,0.000000000000000000e+00,1.652870955307844669e-01,0.000000000000000000e+00,0.000000000000000000e+00,2.119540018057147535e+01,2.702789335505415558e+00,-2.572774470036306993e-01,0.000000000000000000e+00,0.000000000000000000e+00,0.000000000000000000e+00,2.286839006641535477e+01,-7.623501964391866892e+00
8.209374999999978842e-03,0.000000000000000000e+00,0.000000000000000000e+00,1.673559451054250358e-01,0.000000000000000000e+00,0.000000000000000000e+00,2.019234354913826124e+01,2.694386826968225179e+00,-2.650878900995419230e-01,0.000000000000000000e+00,0.000000000000000000e+00,0.000000000000000000e+00,2.315047276055356562e+01,-7.717528373013578857e+00
8.259374999999978539e-03,0.000000000000000000e+00,0.000000000000000000e+00,1.683390523964375940e-01,0.000000000000000000e+00,0.000000000000000000e+00,2.080697354482521177e+01,2.714389612328529378e+00,-2.836965796441150989e-01,0.000000000000000000e+00,0.000000000000000000e+00,0.000000000000000000e+00,2.329110341927079375e+01,-7.763406611789377187e+00
8.309374999999978237e-03,0.000000000000000000e+00,0.000000000000000000e+00,1.693872717300741737e-01,0.000000000000000000e+00,0.000000000000000000e+00,1.991082806165727348e+01,2.730842124169365892e+00,-2.828996664025970054e-01,0.000000000000000000e+00,0.000000000000000000e+00,0.000000000000000000e+00,2.343301028426293442e+01,-7.812783216382811702e+00
8.359374999999977934e-03,0.000000000000000000e+00,0.000000000000000000e+00,1.703598969548500430e-01,0.000000000000000000e+00,0.000000000000000000e+00,1.987079143401642867e+01,2.695227916275637181e+00,-2.604718427931881353e-01,0.000000000000000000e+00,0.000000000000000000e+00,0.000000000000000000e+00,2.357267709371590669e+01,-7.858618381473558401e+00
8.409374999999977632e-03,0.000000000000000000e+00,0.000000000000000000e+00,1.713569243468297254e-01,0.000000000000000000e+00,0.000000000000000000e+00,1.937495021591400146e+01,2.666153362539473548e+00,-2.632396039717773140e-01,0.000000000000000000e+00,0.000000000000000000e+00,0.000000000000000000e+00,2.371534227605792466e+01,-7.905915864654467384e+00
8.459374999999977329e-03,0.000000000000000000e+00,0.000000000000000000e+00,1.723259434097346443e-01,0.000000000000000000e+00,0.000000000000000000e+00,1.984327472478114984e+01,2.660647159673306561e+00,-2.736397782205451379e-01,0.000000000000000000e+00,0.000000000000000000e+00,0.000000000000000000e+00,2.385442483218536225e+01,-7.952066684291071219e+00
8.509374999999977027e-03,0.000000000000000000e+00,0.000000000000000000e+00,1.733164505451651738e-01,0.000000000000000000e+00,0.000000000000000000e+00,1.944844069252241781e+01,2.661263635233782399e+00,-2.826543663987849397e-01,0.000000000000000000e+00,0.000000000000000000e+00,0.000000000000000000e+00,2.399752743345815631e+01,-7.999499547107340902e+00
8.559374999999976724e-03,0.000000000000000000e+00,0.000000000000000000e+00,1.742927596207224650e-01,0.000000000000000000e+00,0.000000000000000000e+00,1.983912387413966272e+01,2.668602174121683657e+00,-2.856690977489568239e-01,0.000000000000000000e+00,0.000000000000000000e+00,0.000000000000000000e+00,2.413629588070431709e+01,-8.046344175063747883e+00
8.609374999999976422e-03,0.000000000000000000e+00,0.000000000000000000e+00,1.752711430755824751e-01,0.000000000000000000e+00,0.000000000000000000e+00,1.913041888212316977e+01,2.663026239348268653e+00,-2.810766008719771114e-01,0.000000000000000000e+00,0.000000000000000000e+00,0.000000000000000000e+00,2.427960956863054420e+01,-8.093668104637806948e+00
8.659374999999976119e-03,0.000000000000000000e+00,0.000000000000000000e+00,1.762258270261860271e-01,0.000000000000000000e+00,0.000000000000000000e+00,1.917391857699630364e+01,2.643505523438475446e+00,-2.815676241667269264e-01,0.000000000000000000e+00,0.000000000000000000e+00,0.000000000000000000e+00,2.441825248809339044e+01,-8.140483916655920638e+00
8.709374999999975817e-03,0.000000000000000000e+00,0.000000000000000000e+00,1.771850144383128600e-01,0.000000000000000000e+00,0.000000000000000000e+00,1.910902060449449280e+01,2.612563066069322648e+00,-2.951802782331172659e-01,0.000000000000000000e+00,0.000000000000000000e+00,0.000000000000000000e+00,2.456162114584041944e+01,-8.187718619268640197e+00
8.759374999999975514e-03,0.000000000000000000e+00,0.000000000000000000e+00,1.781172948965472347e-01,0.000000000000000000e+00,0.000000000000000000e+00,1.971406199724195218e+01,2.615269434553581185e+00,-3.377021848439020757e-01,0.000000000000000000e+00,0.000000000000000000e+00,0.000000000000000000e+00,2.469994953317661412e+01,-8.233562566045252495e+00
8.784374999999976230e-03,0.000000000000000000e+00,0.000000000000000000e+00,1.785860957615080513e-01,0.000000000000000000e+00,0.000000000000000000e+00,2.022496088200412601e+01,2.594850187014924536e+00,-4.255354963831110560e-01,0.000000000000000000e+00,0.000000000000000000e+00,0.000000000000000000e+00,2.477317001708354027e+01,-8.256822078366500506e+00
8.809374999999976946e-03,0.000000000000000000e+00,0.000000000000000000e+00,1.791072352885872965e-01,0.000000000000000000e+00,0.000000000000000000e+00,1.970028080224223288e+01,2.646321551443785225e+00,-4.027442645586284398e-01,0.000000000000000000e+00,0.000000000000000000e+00,0.000000000000000000e+00,2.484142422237960446e+01,-8.282480926380920039e+00
8.859374999999978378e-03,0.000000000000000000e+00,0.000000000000000000e+00,1.800641910460869521e-01,0.000000000000000000e+00,0.000000000000000000e+00,1.888758833144152049e+01,2.668663264489226528e+00,-3.016944807576868448e-01,0.000000000000000000e+00,0.000000000000000000e+00,0.000000000000000000e+00,2.498277224528747809e+01,-8.329757696676047374e+00
8.909374999999979811e-03,0.000000000000000000e+00,0.000000000000000000e+00,1.809980887014173700e-01,0.000000000000000000e+00,0.000000000000000000e+00,1.855341947384573231e+01,2.703446402973543439e+00,-2.174897745023756934e-01,0.000000000000000000e+00,0.000000000000000000e+00,0.000000000000000000e+00,2.512402459881431227e+01,-8.376013966598460314e+00
8.959374999999981243e-03,0.000000000000000000e+00,0.000000000000000000e+00,1.819317379252055888e-01,0.000000000000000000e+00,0.000000000000000000e+00,1.892367722517064621e+01,2.741305976139527090e+00,-1.951100756721114993e-01,0.000000000000000000e+00,0.000000000000000000e+00,0.000000000000000000e+00,2.526520507369362889e+01,-8.422336846906238961e+00
9.009374999999982675e-03,0.000000000000000000e+00,0.000000000000000000e+00,1.828814155691842469e-01,0.000000000000000000e+00,0.000000000000000000e+00,1.929651859917582613e+01,2.785101595758983084e+00,-2.003412798907715231e-01,0.000000000000000000e+00,0.000000000000000000e+00,0.000000000000000000e+00,2.540633187384919367e+01,-8.469216575102842981e+00
9.059374999999982372e-03,0.000000000000000000e+00,0.000000000000000000e+00,1.838412144779908441e-01,0.000000000000000000e+00,0.000000000000000000e+00,1.920046782393449547e+01,2.811150256407885628e+00,-2.116612407538510932e-01,0.000000000000000000e+00,0.000000000000000000e+00,0.000000000000000000e+00,2.554744815380696465e+01,-8.516324376420934428e+00
9.109374999999982070e-03,0.000000000000000000e+00,0.000000000000000000e+00,1.848153055441896508e-01,0.000000000000000000e+00,0.000000000000000000e+00,1.968401611666455508e+01,2.809321440423928617e+00,-2.294097286405308855e-01,0.000000000000000000e+00,0.000000000000000000e+00,0.000000000000000000e+00,2.568850388032901577e+01,-8.563661610489878839e+00
9.159374999999981767e-03,0.000000000000000000e+00,0.000000000000000000e+00,1.857926367881202467e-01,0.000000000000000000e+00,0.000000000000000000e+00,1.947014056573427609e+01,2.784922969749672017e+00,-2.438684737301479999e-01,0.000000000000000000e+00,0.000000000000000000e+00,0.000000000000000000e+00,2.582930938582324387e+01,-8.610634152745465286e+00
9.209374999999981465e-03,0.000000000000000000e+00,0.000000000000000000e+00,1.867825497452210159e-01,0.000000000000000000e+00,0.000000000000000000e+00,2.007814931196451624e+01,2.755539671056476791e+00,-2.657794907595253942e-01,0.000000000000000000e+00,0.000000000000000000e+00,0.000000000000000000e+00,2.597061433745036041e+01,-8.657610353959515948e+00
9.259374999999981162e-03,0.000000000000000000e+00,0.000000000000000000e+00,1.877802130591049723e-01,0.000000000000000000e+00,0.000000000000000000e+00,1.986737606519237076e+01,2.730078906688972573e+00,-2.825146553189054055e-01,0.000000000000000000e+00,0.000000000000000000e+00,0.000000000000000000e+00,2.611122296507162588e+01,-8.704479459005384001e+00
9.309374999999980860e-03,0.000000000000000000e+00,0.000000000000000000e+00,1.887907220796361807e-01,0.000000000000000000e+00,0.000000000000000000e+00,2.052049289486082984e+01,2.715946438840998400e+00,-3.019135188182844876e-01,0.000000000000000000e+00,0.000000000000000000e+00,0.000000000000000000e+00,2.625268042453541284e+01,-8.751491502938382183e+00
9.359374999999980557e-03,0.000000000000000000e+00,0.000000000000000000e+00,1.898068367251103949e-01,0.000000000000000000e+00,0.000000000000000000e+00,2.015260854173693161e+01,2.704628201869317294e+00,-3.125999929084113393e-01,0.000000000000000000e+00,0.000000000000000000e+00,0.000000000000000000e+00,2.639317400912653966e+01,-8.798494319971801758e+00
9.409374999999980255e-03,0.000000000000000000e+00,0.000000000000000000e+00,1.908280770338616761e-01,0.000000000000000000e+00,0.000000000000000000e+00,2.067201974403095122e+01,2.700245279828889178e+00,-3.256376102529632832e-01,0.000000000000000000e+00,0.000000000000000000e+00,0.000000000000000000e+00,2.653471501469786986e+01,-8.845550017462404213e+00
9.459374999999979952e-03,0.000000000000000000e+00,0.000000000000000000e+00,1.918500462310011867e-01,0.000000000000000000e+00,0.000000000000000000e+00,2.022952081095863264e+01,2.691936874340785657e+00,-3.335354792347095532e-01,0.000000000000000000e+00,0.000000000000000000e+00,0.000000000000000000e+00,2.667515140115097338e+01,-8.892549857702448435e+00
9.509374999999979650e-03,0.000000000000000000e+00,0.000000000000000000e+00,1.928731112568303208e-01,0.000000000000000000e+00,0.000000000000000000e+00,2.067228258366139215e+01,2.685542992767980586e+00,-3.440581464757547225e-01,0.000000000000000000e+00,0.000000000000000000e+00,0.000000000000000000e+00,2.681672769102122089e+01,-8.939558746803834666e+00
9.559374999999979347e-03,0.000000000000000000e+00,0.000000000000000000e+00,1.938605843170839449e-01,0.000000000000000000e+00,0.000000000000000000e+00,2.052326482153638310e+01,2.711959557964603640e+00,-3.755859391091769806e-01,0.000000000000000000e+00,0.000000000000000000e+00,0.000000000000000000e+00,2.695676643232835090e+01,-8.985393776454708714e+00
9.609374999999979045e-03,0.000000000000000000e+00,0.000000000000000000e+00,1.949196516054471362e-01,0.000000000000000000e+00,0.000000000000000000e+00,2.060441633726968647e+01,2.714837466240740849e+00,-3.570913719764000072e-01,0.000000000000000000e+00,0.000000000000000000e+00,0.000000000000000000e+00,2.709941036708067230e+01,-9.034597272354568886e+00
9.659374999999978742e-03,0.000000000000000000e+00,0.000000000000000000e+00,1.959114561702463841e-01,0.000000000000000000e+00,0.000000000000000000e+00,1.996938234378569277e+01,2.674890043231441972e+00,-3.429609542795937216e-01,0.000000000000000000e+00,0.000000000000000000e+00,0.000000000000000000e+00,2.723822990406784683e+01,-9.080559520725664413e+00
9.709374999999978439e-03,0.000000000000000000e+00,0.000000000000000000e+00,1.969434934119148606e-01,0.000000000000000000e+00,0.000000000000000000e+00,2.065009111098340711e+01,2.660838396996755506e+00,-3.576834077171288651e-01,0.000000000000000000e+00,0.000000000000000000e+00,0.000000000000000000e+00,2.738182315034240588e+01,-9.128023312340017625e+00
9.759374999999978137e-03,0.000000000000000000e+00,0.000000000000000000e+00,1.979450934370442783e-01,0.000000000000000000e+00,0.000000000000000000e+00,1.990221158087593878e+01,2.651816242423771897e+00,-3.583361169962732129e-01,0.000000000000000000e+00,0.000000000000000000e+00,0.000000000000000000e+00,2.751992148208729461e+01,-9.174133139295953754e+00
9.809374999999977834e-03,0.000000000000000000e+00,0.000000000000000000e+00,1.989701611500268030e-01,0.000000000000000000e+00,0.000000000000000000e+00,2.073779207526522228e+01,2.663012734839391715e+00,-3.714529567231786289e-01,0.000000000000000000e+00,0.000000000000000000e+00,0.000000000000000000e+00,2.766404395546440753e+01,-9.221546608084835839e+00
9.859374999999979267e-03,0.000000000000000000e+00,0.000000000000000000e+00,1.999628839267750258e-01,0.000000000000000000e+00,0.000000000000000000e+00,2.122717393408112940e+01,2.692569701368482171e+00,-3.828626298004932371e-01,0.000000000000000000e+00,0.000000000000000000e+00,0.000000000000000000e+00,2.780531354204116568e+01,-9.268719545359269674e+00
9.909374999999980699e-03,0.000000000000000000e+00,0.000000000000000000e+00,2.009682364847805436e-01,0.000000000000000000e+00,0.000000000000000000e+00,2.123508619178922530e+01,2.703734883714085324e+00,-3.844329605783188275e-01,0.000000000000000000e+00,0.000000000000000000e+00,0.000000000000000000e+00,2.794642269267777479e+01,-9.315877239432067469e+00
9.959374999999982131e-03,0.000000000000000000e+00,0.000000000000000000e+00,2.019731940390541713e-01,0.000000000000000000e+00,0.000000000000000000e+00,2.120169089924010919e+01,2.696432073670548490e+00,-3.816326949295388293e-01,0.000000000000000000e+00,0.000000000000000000e+00,0.000000000000000000e+00,2.808742264095400287e+01,-9.362808513238228159e+00
1.000937499999998356e-02,0.000000000000000000e+00,0.000000000000000000e+00,2.029781821045128221e-01,0.000000000000000000e+00,0.000000000000000000e+00,2.120613593780286976e+01,2.685142727034933063e+00,-3.823135267171987595e-01,0.000000000000000000e+00,0.000000000000000000e+00,0.000000000000000000e+00,2.822835094343123075e+01,-9.409636422124680877e+00
1.005937499999998500e-02,0.000000000000000000e+00,0.000000000000000000e+00,2.039853673878952445e-01,0.000000000000000000e+00,0.000000000000000000e+00,2.121863198592484068e+01,2.677604118400602307e+00,-3.859017334016212053e-01,0.000000000000000000e+00,0.000000000000000000e+00,0.000000000000000000e+00,2.836923482737786983e+01,-9.456522852552437186e+00
1.010937499999998643e-02,0.000000000000000000e+00,0.000000000000000000e+00,2.049987950877850129e-01,0.000000000000000000e+00,0.000000000000000000e+00,2.154070821334334340e+01,2.688788939368061737e+00,-3.851637573182701835e-01,0.000000000000000000e+00,0.000000000000000000e+00,0.000000000000000000e+00,2.851041171215675263e+01,-9.503707902125334783e+00
1.015937499999998786e-02,0.000000000000000000e+00,0.000000000000000000e+00,2.060130785657925401e-01,0.000000000000000000e+00,0.000000000000000000e+00,2.134282431509681288e+01,2.680020185500956220e+00,-3.952897440316859856e-01,0.000000000000000000e+00,0.000000000000000000e+00,0.000000000000000000e+00,2.865134003586347688e+01,-9.550798891457484174e+00
1.020937499999998929e-02,0.000000000000000000e+00,0.000000000000000000e+00,2.070224104329824732e-01,0.000000000000000000e+00,0.000000000000000000e+00,2.109527966626155759e+01,2.670810315128047563e+00,-4.028298329917714415e-01,0.000000000000000000e+00,0.000000000000000000e+00,0.000000000000000000e+00,2.879208417395818742e+01,-9.597675392813005857e+00
1.025937499999999072e-02,0.000000000000000000e+00,0.000000000000000000e+00,2.080326616103562731e-01,0.000000000000000000e+00,0.000000000000000000e+00,1.952075110820176818e+01,2.658244484872823943e+00,-4.005400247761431443e-01,0.000000000000000000e+00,0.000000000000000000e+00,0.000000000000000000e+00,2.893008866715898364e+01,-9.644496566993057129e+00
1.030937499999999216e-02,0.000000000000000000e+00,0.000000000000000000e+00,2.090480377511185206e-01,0.000000000000000000e+00,0.000000000000000000e+00,1.973279472283347147e+01,2.661347639735337278e+00,-4.028037091440579420e-01,0.000000000000000000e+00,0.000000000000000000e+00,0.000000000000000000e+00,2.907133978832725418e+01,-9.691455277798645795e+00
1.035937499999999359e-02,0.000000000000000000e+00,0.000000000000000000e+00,2.100687595443712363e-01,0.000000000000000000e+00,0.000000000000000000e+00,1.993527137197483867e+01,2.664715307494675223e+00,-4.037300878208126553e-01,0.000000000000000000e+00,0.000000000000000000e+00,0.000000000000000000e+00,2.921254417631493183e+01,-9.738495964541121097e+00
1.040937499999999502e-02,0.000000000000000000e+00,0.000000000000000000e+00,2.110933560525487251e-01,0.000000000000000000e+00,0.000000000000000000e+00,2.008598991233562714e+01,2.665707187529257727e+00,-4.043935714361103773e-01,0.000000000000000000e+00,0.000000000000000000e+00,0.000000000000000000e+00,2.935371052425989902e+01,-9.785543474877178127e+00
1.045937499999999645e-02,0.000000000000000000e+00,0.000000000000000000e+00,2.121169881543486513e-01,0.000000000000000000e+00,0.000000000000000000e+00,1.989016238700555661e+01,2.666205817637578246e+00,-4.061102242916567739e-01,0.000000000000000000e+00,0.000000000000000000e+00,0.000000000000000000e+00,2.949484590897025882e+01,-9.832554433545890760e+00
1.053437499999999687e-02,0.000000000000000000e+00,0.000000000000000000e+00,2.136358956311170121e-01,0.000000000000000000e+00,0.000000000000000000e+00,2.001126178315320203e+01,2.676541669846188576e+00,-3.995631395008779063e-01,0.000000000000000000e+00,0.000000000000000000e+00,0.000000000000000000e+00,2.970650567953352805e+01,-9.903020092974532673e+00
1.058437499999999656e-02,0.000000000000000000e+00,0.000000000000000000e+00,2.146576242158866332e-01,0.000000000000000000e+00,0.000000000000000000e+00,2.082701577470071186e+01,2.690328184138455647e+00,-4.000511154074791187e-01,0.000000000000000000e+00,0.000000000000000000e+00,0.000000000000000000e+00,2.984828250799785820e+01,-9.950010690095218990e+00
1.063437499999999626e-02,0.000000000000000000e+00,0.000000000000000000e+00,2.156889464081188090e-01,0.000000000000000000e+00,0.000000000000000000e+00,2.045400765009668831e+01,2.695117752911113218e+00,-3.986642141117272553e-01,0.000000000000000000e+00,0.000000000000000000e+00,0.000000000000000000e+00,2.998866626018038772e+01,-9.997031769202049389e+00
1.068437499999999596e-02,0.000000000000000000e+00,0.000000000000000000e+00,2.167296173205687515e-01,0.000000000000000000e+00,0.000000000000000000e+00,2.114726474732859884e+01,2.701638788270081637e+00,-4.056516965979938827e-01,0.000000000000000000e+00,0.000000000000000000e+00,0.000000000000000000e+00,3.013014627519610045e+01,-1.004404654505926509e+01
1.073437499999999566e-02,0.000000000000000000e+00,0.000000000000000000e+00,2.177775018438606047e-01,0.000000000000000000e+00,0.000000000000000000e+00,2.079172641742714234e+01,2.695982494167873167e+00,-4.096485840434794801e-01,0.000000000000000000e+00,0.000000000000000000e+00,0.000000000000000000e+00,3.027078140890022340e+01,-1.009105890652225490e+01
1.078437499999999535e-02,0.000000000000000000e+00,0.000000000000000000e+00,2.188303971069542053e-01,0.000000000000000000e+00,0.000000000000000000e+00,2.130276671847508396e+01,2.693947256041540950e+00,-4.214493313567848065e-01,0.000000000000000000e+00,0.000000000000000000e+00,0.000000000000000000e+00,3.041204935606858228e+01,-1.013805050532525875e+01
1.083437499999999505e-02,0.000000000000000000e+00,0.000000000000000000e+00,2.198860212077290432e-01,0.000000000000000000e+00,0.000000000000000000e+00,2.094187280137223794e+01,2.685468302179405686e+00,-4.287838365345219560e-01,0.000000000000000000e+00,0.000000000000000000e+00,0.000000000000000000e+00,3.055286259286655692e+01,-1.018506347571367421e+01
1.088437499999999475e-02,0.000000000000000000e+00,0.000000000000000000e+00,2.209428663649497804e-01,0.000000000000000000e+00,0.000000000000000000e+00,2.131411620693730313e+01,2.683546556073175271e+00,-4.443071032120834984e-01,0.000000000000000000e+00,0.000000000000000000e+00,0.000000000000000000e+00,3.069398172942594627e+01,-1.023214498621223179e+01
1.090937499999999546e-02,0.000000000000000000e+00,0.000000000000000000e+00,2.214514376436832188e-01,0.000000000000000000e+00,0.000000000000000000e+00,2.112327706586604492e+01,2.703271694693479166e+00,-4.570323692684958305e-01,0.000000000000000000e+00,0.000000000000000000e+00,0.000000000000000000e+00,3.076431656086103672e+01,-1.025490646294299779e+01
1.095937499999999690e-02,0.000000000000000000e+00,0.000000000000000000e+00,2.224356176258335538e-01,0.000000000000000000e+00,0.000000000000000000e+00,1.688795883372151607e+01,3.150451403257179983e+00,-9.231398477356261845e-01,0.000000000000000000e+00,0.000000000000000000e+00,0.000000000000000000e+00,3.090520810439724286e+01,-1.030272294266154454e+01
1.100937499999999833e-02,0.000000000000000000e+00,0.000000000000000000e+00,2.231389986627922428e-01,0.000000000000000000e+00,0.000000000000000000e+00,1.112566875965767288e+01,3.115289246777247723e+00,-9.186224579937237733e-01,0.000000000000000000e+00,0.000000000000000000e+00,0.000000000000000000e+00,3.104614522728906323e+01,-1.035059161232095093e+01
1.105937499999999976e-02,0.000000000000000000e+00,0.000000000000000000e+00,2.236121354801189065e-01,0.000000000000000000e+00,0.000000000000000000e+00,7.581639612731853717e+00,2.940681640457330381e+00,-7.828942290962888073e-01,0.000000000000000000e+00,0.000000000000000000e+00,0.000000000000000000e+00,3.118711452466197187e+01,-1.039776156559441667e+01
1.110937500000000119e-02,0.000000000000000000e+00,0.000000000000000000e+00,2.239633152007607375e-01,0.000000000000000000e+00,0.000000000000000000e+00,6.141557086249770592e+00,2.745327757159979676e+00,-6.389058325353039747e-01,0.000000000000000000e+00,0.000000000000000000e+00,0.000000000000000000e+00,3.132810604007966049e+01,-1.044427171706375645e+01
1.118437500000000161e-02,0.000000000000000000e+00,0.000000000000000000e+00,2.244713432480962001e-01,0.000000000000000000e+00,0.000000000000000000e+00,7.192206990875928518e+00,2.520382384262831454e+00,-4.865159544869364638e-01,0.000000000000000000e+00,0.000000000000000000e+00,0.000000000000000000e+00,3.153961547574521518e+01,-1.051397838356538372e+01
1.123437500000000130e-02,0.000000000000000000e+00,0.000000000000000000e+00,2.249084737689010793e-01,0.000000000000000000e+00,0.000000000000000000e+00,1.021851196793036820e+01,2.637073166050922346e+00,-3.886554028073478939e-01,0.000000000000000000e+00,0.000000000000000000e+00,0.000000000000000000e+00,3.168125004908791453e+01,-1.056093150295686023e+01
1.128437500000000100e-02,0.000000000000000000e+00,0.000000000000000000e+00,2.254568321683144139e-01,0.000000000000000000e+00,0.000000000000000000e+00,1.177703009284783420e+01,2.671805049025145706e+00,-2.967453208312137436e-01,0.000000000000000000e+00,0.000000000000000000e+00,0.000000000000000000e+00,3.182163575128680222e+01,-1.060801988311135702e+01
1.133437500000000070e-02,0.000000000000000000e+00,0.000000000000000000e+00,2.261154957871154003e-01,0.000000000000000000e+00,0.000000000000000000e+00,1.451933708182523652e+01,2.387957878943240075e+00,-3.664756570248727252e-01,0.000000000000000000e+00,0.000000000000000000e+00,0.000000000000000000e+00,3.196322748292070770e+01,-1.065515664571826804e+01
1.138437500000000040e-02,0.000000000000000000e+00,0.000000000000000000e+00,2.269285990767240246e-01,0.000000000000000000e+00,0.000000000000000000e+00,1.803757469931943547e+01,2.327279733356597546e+00,-4.041127565132129340e-01,0.000000000000000000e+00,0.000000000000000000e+00,0.000000000000000000e+00,3.210365994719933980e+01,-1.070203326898080931e+01
1.143437500000000009e-02,0.000000000000000000e+00,0.000000000000000000e+00,2.279381692041553831e-01,0.000000000000000000e+00,0.000000000000000000e+00,2.231774464557943460e+01,2.344059882791519556e+00,-5.060767913562899123e-01,0.000000000000000000e+00,0.000000000000000000e+00,0.000000000000000000e+00,3.224520220887529121e+01,-1.074890572135603151e+01
1.148437499999999979e-02,0.000000000000000000e+00,0.000000000000000000e+00,2.291143715049952512e-01,0.000000000000000000e+00,0.000000000000000000e+00,2.475913501449937826e+01,2.478816900479586138e+00,-5.202349426669418131e-01,0.000000000000000000e+00,0.000000000000000000e+00,0.000000000000000000e+00,3.238568584179214582e+01,-1.079586604881208878e+01
1.153437499999999949e-02,0.000000000000000000e+00,0.000000000000000000e+00,2.304269695370077531e-01,0.000000000000000000e+00,0.000000000000000000e+00,2.772135778929526495e+01,2.598990174267699516e+00,-5.462830974448635857e-01,0.000000000000000000e+00,0.000000000000000000e+00,0.000000000000000000e+00,3.252717607058450966e+01,-1.084298359744298779e+01
1.158437499999999919e-02,0.000000000000000000e+00,0.000000000000000000e+00,2.318314403478890506e-01,0.000000000000000000e+00,0.000000000000000000e+00,2.848503290489688666e+01,2.683367321456629817e+00,-5.545119027226560471e-01,0.000000000000000000e+00,0.000000000000000000e+00,0.000000000000000000e+00,3.266771191609650771e+01,-1.089012800834186123e+01
1.163437499999999888e-02,0.000000000000000000e+00,0.000000000000000000e+00,2.332907303494034523e-01,0.000000000000000000e+00,0.000000000000000000e+00,2.986358280094473017e+01,2.749709403723581413e+00,-5.831272848390497421e-01,0.000000000000000000e+00,0.000000000000000000e+00,0.000000000000000000e+00,3.280915030885043393e+01,-1.093725375562854119e+01
1.165937499999999960e-02,0.000000000000000000e+00,0.000000000000000000e+00,2.340229057843933314e-01,0.000000000000000000e+00,0.000000000000000000e+00,2.939811787860363879e+01,2.766497699864182369e+00,-5.965913133015470216e-01,0.000000000000000000e+00,0.000000000000000000e+00,0.000000000000000000e+00,3.287919112036495051e+01,-1.096058275997376086e+01
1.170937500000000103e-02,0.000000000000000000e+00,0.000000000000000000e+00,2.354991556921962326e-01,0.000000000000000000e+00,0.000000000000000000e+00,2.877307890413514713e+01,2.823733891155996378e+00,-5.999430543244386183e-01,0.000000000000000000e+00,0.000000000000000000e+00,0.000000000000000000e+00,3.302014907278442024e+01,-1.100781335092011481e+01
1.175937500000000246e-02,0.000000000000000000e+00,0.000000000000000000e+00,2.369251167803161362e-01,0.000000000000000000e+00,0.000000000000000000e+00,2.759145805650695493e+01,2.827051071356519785e+00,-6.061696716535559526e-01,0.000000000000000000e+00,0.000000000000000000e+00,0.000000000000000000e+00,3.316113189758915780e+01,-1.105491637162863761e+01
1.180937500000000390e-02,0.000000000000000000e+00,0.000000000000000000e+00,2.382786739607429261e-01,0.000000000000000000e+00,0.000000000000000000e+00,2.598979845787665610e+01,2.820870026461029134e+00,-6.128266673270925669e-01,0.000000000000000000e+00,0.000000000000000000e+00,0.000000000000000000e+00,3.330213166118981150e+01,-1.110192474203866553e+01
1.185937500000000533e-02,0.000000000000000000e+00,0.000000000000000000e+00,2.395044658921738068e-01,0.000000000000000000e+00,0.000000000000000000e+00,2.191119375622744059e+01,2.767731837822802632e+00,-5.630369695754231518e-01,0.000000000000000000e+00,0.000000000000000000e+00,0.000000000000000000e+00,3.344314254686632637e+01,-1.114887814259170540e+01
1.193437500000000574e-02,0.000000000000000000e+00,0.000000000000000000e+00,2.407518384062720396e-01,0.000000000000000000e+00,0.000000000000000000e+00,1.118095002415852690e+01,2.583311091006870175e+00,-4.068483177051495647e-01,0.000000000000000000e+00,0.000000000000000000e+00,0.000000000000000000e+00,3.365466844847510686e+01,-1.121903385499481232e+01
1.198437500000000544e-02,0.000000000000000000e+00,0.000000000000000000e+00,2.412038720370313916e-01,0.000000000000000000e+00,0.000000000000000000e+00,6.843890252163355115e+00,2.511056837801269648e+00,-3.792116177323951454e-01,0.000000000000000000e+00,0.000000000000000000e+00,0.000000000000000000e+00,3.379618955887041665e+01,-1.126586748164029217e+01
1.203437500000000514e-02,0.000000000000000000e+00,0.000000000000000000e+00,2.414774449472386619e-01,0.000000000000000000e+00,0.000000000000000000e+00,4.132343095840452563e+00,2.449890721617798750e+00,-3.692630292574360373e-01,0.000000000000000000e+00,0.000000000000000000e+00,0.000000000000000000e+00,3.393670172576698008e+01,-1.131284613380248416e+01
1.208437500000000484e-02,0.000000000000000000e+00,0.000000000000000000e+00,2.416972046225492887e-01,0.000000000000000000e+00,0.000000000000000000e+00,4.618513331756870954e+00,2.408147269934774126e+00,-3.772324086400639653e-01,0.000000000000000000e+00,0.000000000000000000e+00,0.000000000000000000e+00,3.407815772593194481e+01,-1.135993259325134375e+01
1.213437500000000453e-02,0.000000000000000000e+00,0.000000000000000000e+00,2.419660249002321128e-01,0.000000000000000000e+00,0.000000000000000000e+00,6.158007464537592845e+00,2.374810382843803414e+00,-3.831772379495198000e-01,0.000000000000000000e+00,0.000000000000000000e+00,0.000000000000000000e+00,3.421873207045064191e+01,-1.140693616831254431e+01
1.218437500000000423e-02,0.000000000000000000e+00,0.000000000000000000e+00,2.423686628057767078e-01,0.000000000000000000e+00,0.000000000000000000e+00,9.919633138746133838e+00,2.370894177265741920e+00,-4.048904817918490551e-01,0.000000000000000000e+00,0.000000000000000000e+00,0.000000000000000000e+00,3.436012889018485339e+01,-1.145384483446101953e+01
1.223437500000000393e-02,0.000000000000000000e+00,0.000000000000000000e+00,2.429576520899814351e-01,0.000000000000000000e+00,0.000000000000000000e+00,1.366031163227896705e+01,2.384319026354208670e+00,-4.266027403319787581e-01,0.000000000000000000e+00,0.000000000000000000e+00,0.000000000000000000e+00,3.450075939560238680e+01,-1.150070611286304612e+01
1.228437500000000362e-02,0.000000000000000000e+00,0.000000000000000000e+00,2.437611554894053567e-01,0.000000000000000000e+00,0.000000000000000000e+00,1.845994057586864656e+01,2.429000491286923413e+00,-4.619065537477031191e-01,0.000000000000000000e+00,0.000000000000000000e+00,0.000000000000000000e+00,3.464210306186360810e+01,-1.154762925598729417e+01
1.233437500000000332e-02,0.000000000000000000e+00,0.000000000000000000e+00,2.447765159352655040e-01,0.000000000000000000e+00,0.000000000000000000e+00,2.217413166387126466e+01,2.486163117417313106e+00,-4.934775242439571885e-01,0.000000000000000000e+00,0.000000000000000000e+00,0.000000000000000000e+00,3.478278375320429916e+01,-1.159463331460354674e+01
1.238437500000000302e-02,0.000000000000000000e+00,0.000000000000000000e+00,2.459819745532186575e-01,0.000000000000000000e+00,0.000000000000000000e+00,2.602924467371740391e+01,2.561526833231082101e+00,-5.330946951841616377e-01,0.000000000000000000e+00,0.000000000000000000e+00,0.000000000000000000e+00,3.492408013912066878e+01,-1.164170555222283632e+01
1.240937500000000374e-02,0.000000000000000000e+00,0.000000000000000000e+00,2.466475618084627563e-01,0.000000000000000000e+00,0.000000000000000000e+00,2.758247776500025594e+01,2.615104295015540092e+00,-5.595003463094687657e-01,0.000000000000000000e+00,0.000000000000000000e+00,0.000000000000000000e+00,3.499468351918995523e+01,-1.166524206867589086e+01
1.245937500000000517e-02,0.000000000000000000e+00,0.000000000000000000e+00,2.480637483229446438e-01,0.000000000000000000e+00,0.000000000000000000e+00,2.949877384457982643e+01,2.687511614227792389e+00,-5.845118256303947213e-01,0.000000000000000000e+00,0.000000000000000000e+00,0.000000000000000000e+00,3.513577013104256253e+01,-1.171242633875355743e+01
1.250937500000000660e-02,0.000000000000000000e+00,0.000000000000000000e+00,2.495508385295390208e-01,0.000000000000000000e+00,0.000000000000000000e+00,3.039695515346267385e+01,2.739350875082965597e+00,-6.154279509097951850e-01,0.000000000000000000e+00,0.000000000000000000e+00,0.000000000000000000e+00,3.527676807527311098e+01,-1.175951361390667671e+01
1.255937500000000803e-02,0.000000000000000000e+00,0.000000000000000000e+00,2.510539539274992960e-01,0.000000000000000000e+00,0.000000000000000000e+00,3.016884766210163349e+01,2.787807888984098259e+00,-6.386743521745718022e-01,0.000000000000000000e+00,0.000000000000000000e+00,0.000000000000000000e+00,3.541773972978371887e+01,-1.180642709220620112e+01
1.260937500000000946e-02,0.000000000000000000e+00,0.000000000000000000e+00,2.525239921837935664e-01,0.000000000000000000e+00,0.000000000000000000e+00,2.908890886983472868e+01,2.820784544466965915e+00,-6.535185284630207203e-01,0.000000000000000000e+00,0.000000000000000000e+00,0.000000000000000000e+00,3.555871022181919727e+01,-1.185333538536105635e+01
1.265937500000001090e-02,0.000000000000000000e+00,0.000000000000000000e+00,2.539254548030064340e-01,0.000000000000000000e+00,0.000000000000000000e+00,2.745362248523386484e+01,2.818503792370494310e+00,-6.517173102284972153e-01,0.000000000000000000e+00,0.000000000000000000e+00,0.000000000000000000e+00,3.569968101638568214e+01,-1.190038176890429433e+01
1.270937500000001233e-02,0.000000000000000000e+00,0.000000000000000000e+00,2.552295008848679547e-01,0.000000000000000000e+00,0.000000000000000000e+00,2.528772851914490971e+01,2.829372949929904735e+00,-6.593436338581553091e-01,0.000000000000000000e+00,0.000000000000000000e+00,0.000000000000000000e+00,3.584065306375940452e+01,-1.194750966268619763e+01
1.275937500000001376e-02,0.000000000000000000e+00,0.000000000000000000e+00,2.564306925713606966e-01,0.000000000000000000e+00,0.000000000000000000e+00,2.313386310910435739e+01,2.779878973491128225e+00,-6.601309235051366908e-01,0.000000000000000000e+00,0.000000000000000000e+00,0.000000000000000000e+00,3.598162694218443391e+01,-1.199461606607245834e+01
1.280937500000001346e-02,0.000000000000000000e+00,0.000000000000000000e+00,2.575312028306791512e-01,0.000000000000000000e+00,0.000000000000000000e+00,2.090938033519146444e+01,2.730901363501785362e+00,-6.560860442700928719e-01,0.000000000000000000e+00,0.000000000000000000e+00,0.000000000000000000e+00,3.612227164705304716e+01,-1.204163537918926785e+01
1.285937500000001316e-02,0.000000000000000000e+00,0.000000000000000000e+00,2.585432499521406191e-01,0.000000000000000000e+00,0.000000000000000000e+00,1.955175102879571725e+01,2.699564911178539806e+00,-6.543106560626799073e-01,0.000000000000000000e+00,0.000000000000000000e+00,0.000000000000000000e+00,3.626358258713411686e+01,-1.208859388333562634e+01
1.290937500000001285e-02,0.000000000000000000e+00,0.000000000000000000e+00,2.594821207337091873e-01,0.000000000000000000e+00,0.000000000000000000e+00,1.801901153227138153e+01,2.660220144082898308e+00,-6.430480145211741050e-01,0.000000000000000000e+00,0.000000000000000000e+00,0.000000000000000000e+00,3.640431068404473081e+01,-1.213552915360145334e+01
1.295937500000001255e-02,0.000000000000000000e+00,0.000000000000000000e+00,2.603725886051108107e-01,0.000000000000000000e+00,0.000000000000000000e+00,1.758287004458226122e+01,2.630113016233003087e+00,-6.382283442466001322e-01,0.000000000000000000e+00,0.000000000000000000e+00,0.000000000000000000e+00,3.654554824814046299e+01,-1.218247944975041896e+01
1.300937500000001225e-02,0.000000000000000000e+00,0.000000000000000000e+00,2.612383741083153521e-01,0.000000000000000000e+00,0.000000000000000000e+00,1.706120168794329217e+01,2.598771341351403308e+00,-6.304720987526138964e-01,0.000000000000000000e+00,0.000000000000000000e+00,0.000000000000000000e+00,3.668634087427029300e+01,-1.222944494277106209e+01
1.305937500000001195e-02,0.000000000000000000e+00,0.000000000000000000e+00,2.621058402125716613e-01,0.000000000000000000e+00,0.000000000000000000e+00,1.762305699177732876e+01,2.582462008306136259e+00,-6.297316595658277727e-01,0.000000000000000000e+00,0.000000000000000000e+00,0.000000000000000000e+00,3.682752172032012083e+01,-1.227641459565408333e+01
1.310937500000001164e-02,0.000000000000000000e+00,0.000000000000000000e+00,2.629947146054914531e-01,0.000000000000000000e+00,0.000000000000000000e+00,1.794353581135408504e+01,2.570877462047480133e+00,-6.270310127659338706e-01,0.000000000000000000e+00,0.000000000000000000e+00,0.000000000000000000e+00,3.696836417026607080e+01,-1.232337977247759575e+01
1.315937500000001308e-02,0.000000000000000000e+00,0.000000000000000000e+00,2.639209891397905072e-01,0.000000000000000000e+00,0.000000000000000000e+00,1.890009857391365955e+01,2.595907659760767316e+00,-6.389433443391648870e-01,0.000000000000000000e+00,0.000000000000000000e+00,0.000000000000000000e+00,3.710968135854731997e+01,-1.237053973740880508e+01
1.320937500000001451e-02,0.000000000000000000e+00,0.000000000000000000e+00,2.648965084954868487e-01,0.000000000000000000e+00,0.000000000000000000e+00,2.001271818818473847e+01,2.597840941680550575e+00,-6.333177600483060887e-01,0.000000000000000000e+00,0.000000000000000000e+00,0.000000000000000000e+00,3.725088066247884910e+01,-1.241771197995442400e+01
1.325937500000001594e-02,0.000000000000000000e+00,0.000000000000000000e+00,2.659229883567079677e-01,0.000000000000000000e+00,0.000000000000000000e+00,2.122973297179252583e+01,2.590255153489051221e+00,-6.417544939525876568e-01,0.000000000000000000e+00,0.000000000000000000e+00,0.000000000000000000e+00,3.739199542762555240e+01,-1.246461250681927879e+01
1.330937500000001737e-02,0.000000000000000000e+00,0.000000000000000000e+00,2.670016597338170650e-01,0.000000000000000000e+00,0.000000000000000000e+00,2.240213913514329036e+01,2.596683059499536927e+00,-6.554381828378518238e-01,0.000000000000000000e+00,0.000000000000000000e+00,0.000000000000000000e+00,3.753305058385372917e+01,-1.251138895497192038e+01
1.335937500000001880e-02,0.000000000000000000e+00,0.000000000000000000e+00,2.681273127671056078e-01,0.000000000000000000e+00,0.000000000000000000e+00,2.336072765519602257e+01,2.617493232066161468e+00,-6.695076111816908870e-01,0.000000000000000000e+00,0.000000000000000000e+00,0.000000000000000000e+00,3.767406463952276852e+01,-1.255826152215222002e+01
1.340937500000001850e-02,0.000000000000000000e+00,0.000000000000000000e+00,2.692858380897479309e-01,0.000000000000000000e+00,0.000000000000000000e+00,2.305912871681239551e+01,2.635920327571104060e+00,-6.748548037142457767e-01,0.000000000000000000e+00,0.000000000000000000e+00,0.000000000000000000e+00,3.781381516524204756e+01,-1.260521714475169297e+01
1.345937500000001820e-02,0.000000000000000000e+00,0.000000000000000000e+00,2.704705743061827650e-01,0.000000000000000000e+00,0.000000000000000000e+00,2.426576281180833661e+01,2.660378715552744300e+00,-6.937934582094027469e-01,0.000000000000000000e+00,0.000000000000000000e+00,0.000000000000000000e+00,3.795604971955307150e+01,-1.265239635954448971e+01
1.350937500000001790e-02,0.000000000000000000e+00,0.000000000000000000e+00,2.716592548180341016e-01,0.000000000000000000e+00,0.000000000000000000e+00,2.333861777090087486e+01,2.665026024366515145e+00,-6.957262171530654848e-01,0.000000000000000000e+00,0.000000000000000000e+00,0.000000000000000000e+00,3.809583959595812530e+01,-1.269942241185203713e+01
1.355937500000001759e-02,0.000000000000000000e+00,0.000000000000000000e+00,2.728472480761104380e-01,0.000000000000000000e+00,0.000000000000000000e+00,2.413131266482685078e+01,2.675188157691813728e+00,-7.123081425423769542e-01,0.000000000000000000e+00,0.000000000000000000e+00,0.000000000000000000e+00,3.823801782943598226e+01,-1.274647311833149921e+01
1.360937500000001729e-02,0.000000000000000000e+00,0.000000000000000000e+00,2.740188995560449703e-01,0.000000000000000000e+00,0.000000000000000000e+00,2.278121721779134745e+01,2.669878299793239762e+00,-7.115177051543704057e-01,0.000000000000000000e+00,0.000000000000000000e+00,0.000000000000000000e+00,3.837787720928712076e+01,-1.279342230263139868e+01
1.365937500000001699e-02,0.000000000000000000e+00,0.000000000000000000e+00,2.751729697142980546e-01,0.000000000000000000e+00,0.000000000000000000e+00,2.333866524806179754e+01,2.674405417729028400e+00,-7.251032512361482718e-01,0.000000000000000000e+00,0.000000000000000000e+00,0.000000000000000000e+00,3.851997595643966577e+01,-1.284043242175059341e+01
1.370937500000001669e-02,0.000000000000000000e+00,0.000000000000000000e+00,2.763008819865889754e-01,0.000000000000000000e+00,0.000000000000000000e+00,2.181898142930849716e+01,2.663870086949934102e+00,-7.213936614256643010e-01,0.000000000000000000e+00,0.000000000000000000e+00,0.000000000000000000e+00,3.865992211388914512e+01,-1.288742549857927600e+01
1.375937500000001638e-02,0.000000000000000000e+00,0.000000000000000000e+00,2.774057938426445213e-01,0.000000000000000000e+00,0.000000000000000000e+00,2.233780769560775425e+01,2.663062315250358303e+00,-7.318413051059884378e-01,0.000000000000000000e+00,0.000000000000000000e+00,0.000000000000000000e+00,3.880192904528520614e+01,-1.293445903670271413e+01
1.380937500000001608e-02,0.000000000000000000e+00,0.000000000000000000e+00,2.784859131074226002e-01,0.000000000000000000e+00,0.000000000000000000e+00,2.090516198549874005e+01,2.648026065834686804e+00,-7.265920546944538705e-01,0.000000000000000000e+00,0.000000000000000000e+00,0.000000000000000000e+00,3.894197018123725940e+01,-1.298145735700560266e+01
1.385937500000001578e-02,0.000000000000000000e+00,0.000000000000000000e+00,2.795485902682134371e-01,0.000000000000000000e+00,0.000000000000000000e+00,2.156413554209274608e+01,2.644167813085076535e+00,-7.353055787131396182e-01,0.000000000000000000e+00,0.000000000000000000e+00,0.000000000000000000e+00,3.908388052209137697e+01,-1.302845819521081872e+01
1.395937500000001517e-02,0.000000000000000000e+00,0.000000000000000000e+00,2.816420429018357541e-01,0.000000000000000000e+00,0.000000000000000000e+00,2.034140334646102843e+01,2.620672272261808100e+00,-7.318267329408771893e-01,0.000000000000000000e+00,0.000000000000000000e+00,0.000000000000000000e+00,3.936504048384562537e+01,-1.312241772061968348e+01
1.405937500000001457e-02,0.000000000000000000e+00,0.000000000000000000e+00,2.829250754607039453e-01,0.000000000000000000e+00,0.000000000000000000e+00,5.358550299815925122e+00,2.277733314773870088e+00,-4.923695458361387334e-01,0.000000000000000000e+00,0.000000000000000000e+00,0.000000000000000000e+00,3.964779328118233082e+01,-1.321588497639919701e+01
1.415937500000001396e-02,0.000000000000000000e+00,0.000000000000000000e+00,2.834475666272512906e-01,0.000000000000000000e+00,0.000000000000000000e+00,4.992751359450881665e+00,2.259555230173910356e+00,-5.927973404083831666e-01,0.000000000000000000e+00,0.000000000000000000e+00,0.000000000000000000e+00,3.992911867695510608e+01,-1.330965721267473789e+01
1.425937500000001336e-02,0.000000000000000000e+00,0.000000000000000000e+00,2.851409684245579945e-01,0.000000000000000000e+00,0.000000000000000000e+00,2.883112726252910107e+01,2.673944135223346397e+00,-9.234338138223092685e-01,0.000000000000000000e+00,0.000000000000000000e+00,0.000000000000000000e+00,4.021172319872268019e+01,-1.340469377606087065e+01
1.435937500000001275e-02,0.000000000000000000e+00,0.000000000000000000e+00,2.875339142746630161e-01,0.000000000000000000e+00,0.000000000000000000e+00,1.921994986670259919e+01,2.376023266363731512e+00,-5.613557473241101992e-01,0.000000000000000000e+00,0.000000000000000000e+00,0.000000000000000000e+00,4.049318148896490044e+01,-1.349818317010617186e+01
1.445937500000001215e-02,0.000000000000000000e+00,0.000000000000000000e+00,2.896362645097555477e-01,0.000000000000000000e+00,0.000000000000000000e+00,2.262502330330035960e+01,2.516896904907911292e+00,-7.139322202901985381e-01,0.000000000000000000e+00,0.000000000000000000e+00,0.000000000000000000e+00,4.077566690389740245e+01,-1.359108284011487378e+01
1.455937500000001154e-02,0.000000000000000000e+00,0.000000000000000000e+00,2.927125524655816435e-01,0.000000000000000000e+00,0.000000000000000000e+00,3.898567940259169973e+01,3.002530313430581632e+00,-1.057960701774175005e+00,0.000000000000000000e+00,0.000000000000000000e+00,0.000000000000000000e+00,4.105723194192390935e+01,-1.368664869764234204e+01
1.465937500000001094e-02,0.000000000000000000e+00,0.000000000000000000e+00,2.965991365186665951e-01,0.000000000000000000e+00,0.000000000000000000e+00,3.876356788890965532e+01,2.939085736228622459e+00,-9.191508522502602752e-01,0.000000000000000000e+00,0.000000000000000000e+00,0.000000000000000000e+00,4.133962168738086262e+01,-1.378141842059169520e+01
1.475937500000001033e-02,0.000000000000000000e+00,0.000000000000000000e+00,2.990995003663209917e-01,0.000000000000000000e+00,0.000000000000000000e+00,1.136098373265767059e+01,3.027563895382904491e+00,-1.178649751226791720e+00,0.000000000000000000e+00,0.000000000000000000e+00,0.000000000000000000e+00,4.162127246475433395e+01,-1.387412916115349759e+01
1.485937500000000973e-02,0.000000000000000000e+00,0.000000000000000000e+00,2.992254437419950563e-01,0.000000000000000000e+00,0.000000000000000000e+00,-8.961283999241594245e+00,3.066315496275402008e+00,-1.501895701461186006e+00,0.000000000000000000e+00,0.000000000000000000e+00,0.000000000000000000e+00,4.190358537166289210e+01,-1.396894684801730158e+01
1.495937500000000912e-02,0.000000000000000000e+00,0.000000000000000000e+00,2.988986166134593447e-01,0.000000000000000000e+00,0.000000000000000000e+00,2.360004330481470181e+00,2.522254092402439696e+00,-1.092362326317153132e+00,0.000000000000000000e+00,0.000000000000000000e+00,0.000000000000000000e+00,4.218530500955387197e+01,-1.406439782946247874e+01
1.500937500000000882e-02,0.000000000000000000e+00,0.000000000000000000e+00,2.991775505593401441e-01,0.000000000000000000e+00,0.000000000000000000e+00,8.887526389607588229e+00,2.331194488158478517e+00,-9.570040294675026260e-01,0.000000000000000000e+00,0.000000000000000000e+00,0.000000000000000000e+00,4.232623138249880412e+01,-1.410936929853158439e+01
1.505937500000000852e-02,0.000000000000000000e+00,0.000000000000000000e+00,2.997738068956101731e-01,0.000000000000000000e+00,0.000000000000000000e+00,1.489961297971622578e+01,2.248923894127684342e+00,-8.017570662749867738e-01,0.000000000000000000e+00,0.000000000000000000e+00,0.000000000000000000e+00,4.246791582876049631e+01,-1.415704308965114144e+01
1.510937500000000822e-02,0.000000000000000000e+00,0.000000000000000000e+00,2.998972212243275481e-01,0.000000000000000000e+00,0.000000000000000000e+00,-9.770334689186253030e+00,5.758881413965311502e+00,-2.706025972542292379e+00,0.000000000000000000e+00,0.000000000000000000e+00,0.000000000000000000e+00,4.260774346340652841e+01,-1.420328178246671946e+01
1.515937500000000791e-02,0.000000000000000000e+00,0.000000000000000000e+00,2.989035785005771384e-01,0.000000000000000000e+00,0.000000000000000000e+00,-3.013611754490589689e+01,1.158935848662779433e+00,4.754980950144778729e-01,0.000000000000000000e+00,0.000000000000000000e+00,0.000000000000000000e+00,4.275029931957013929e+01,-1.425256520737187316e+01
1.520937500000000761e-02,0.000000000000000000e+00,0.000000000000000000e+00,2.982729216834482111e-01,0.000000000000000000e+00,0.000000000000000000e+00,4.762326926031414054e+00,1.315326352854647718e+00,-1.747696843599433336e-01,0.000000000000000000e+00,0.000000000000000000e+00,0.000000000000000000e+00,4.288944839441160894e+01,-1.429792191537988799e+01
1.525937500000000731e-02,0.000000000000000000e+00,0.000000000000000000e+00,2.990460850078374699e-01,0.000000000000000000e+00,0.000000000000000000e+00,2.633525029369299020e+01,1.111924772876097256e+00,-1.765860580717837913e-01,0.000000000000000000e+00,0.000000000000000000e+00,0.000000000000000000e+00,4.303251981620725530e+01,-1.434283739992710061e+01
1.530937500000000701e-02,0.000000000000000000e+00,0.000000000000000000e+00,3.003381442284160929e-01,0.000000000000000000e+00,0.000000000000000000e+00,2.533074867240335948e+01,5.424246117818396051e+00,-2.727145141477781642e+00,0.000000000000000000e+00,0.000000000000000000e+00,0.000000000000000000e+00,4.317129050635301013e+01,-1.439001695279801396e+01
1.535937500000000670e-02,0.000000000000000000e+00,0.000000000000000000e+00,3.009346611079876110e-01,0.000000000000000000e+00,0.000000000000000000e+00,-1.335385209487737201e+00,9.786794128508348178e-01,5.514221590055389255e-01,0.000000000000000000e+00,0.000000000000000000e+00,0.000000000000000000e+00,4.331462541243460862e+01,-1.443950279582769625e+01
1.540937500000000640e-02,0.000000000000000000e+00,0.000000000000000000e+00,3.008575592630528539e-01,0.000000000000000000e+00,0.000000000000000000e+00,-1.971190726339588251e+00,7.684386264265614663e-01,2.958382522694836814e-01,0.000000000000000000e+00,0.000000000000000000e+00,0.000000000000000000e+00,4.345322832246903744e+01,-1.448499109262645668e+01
1.545937500000000610e-02,0.000000000000000000e+00,0.000000000000000000e+00,3.015473062927958026e-01,0.000000000000000000e+00,0.000000000000000000e+00,2.956893980597892124e+01,1.086490976873112135e+00,-2.178581274726322792e-01,0.000000000000000000e+00,0.000000000000000000e+00,0.000000000000000000e+00,4.359665181048439564e+01,-1.452944877714541683e+01
1.555937500000000549e-02,0.000000000000000000e+00,0.000000000000000000e+00,3.041675167334429997e-01,0.000000000000000000e+00,0.000000000000000000e+00,2.301183035012406464e+01,4.439509810205573892e+00,-2.028160106882036740e+00,0.000000000000000000e+00,0.000000000000000000e+00,0.000000000000000000e+00,4.387623308879022233e+01,-1.462605859643900352e+01
1.565937500000000662e-02,0.000000000000000000e+00,0.000000000000000000e+00,3.061176680595444899e-01,0.000000000000000000e+00,0.000000000000000000e+00,1.586560665077388776e+01,5.798801832167633785e-01,6.125027053703280266e-01,0.000000000000000000e+00,0.000000000000000000e+00,0.000000000000000000e+00,4.416062184868557949e+01,-1.472185238789843353e+01
1.575937500000000602e-02,0.000000000000000000e+00,0.000000000000000000e+00,3.084577751207099872e-01,0.000000000000000000e+00,0.000000000000000000e+00,3.092164150392209976e+01,4.736642635881331387e+00,-2.358455887022451680e+00,0.000000000000000000e+00,0.000000000000000000e+00,0.000000000000000000e+00,4.444028124544544767e+01,-1.481346947282372994e+01
1.585937500000000541e-02,0.000000000000000000e+00,0.000000000000000000e+00,3.111399462509495950e-01,0.000000000000000000e+00,0.000000000000000000e+00,2.284330320413445037e+01,7.238419379465108605e-01,4.209230962573137780e-01,0.000000000000000000e+00,0.000000000000000000e+00,0.000000000000000000e+00,4.472455943576210302e+01,-1.490788600327495494e+01
1.595937500000000481e-02,0.000000000000000000e+00,0.000000000000000000e+00,3.140920771320845351e-01,0.000000000000000000e+00,0.000000000000000000e+00,3.600928723184953384e+01,2.270939440916595942e+00,-1.030056625021319228e+00,0.000000000000000000e+00,0.000000000000000000e+00,0.000000000000000000e+00,4.500435458181757298e+01,-1.500037251161593410e+01
1.605937500000000420e-02,0.000000000000000000e+00,0.000000000000000000e+00,3.153700540340314551e-01,0.000000000000000000e+00,0.000000000000000000e+00,-1.002827703656096148e+01,6.630712961177749776e+00,-3.119161315169511450e+00,0.000000000000000000e+00,0.000000000000000000e+00,0.000000000000000000e+00,4.528847798475917585e+01,-1.509822580558856941e+01
1.615937500000000360e-02,0.000000000000000000e+00,0.000000000000000000e+00,3.145459555496975534e-01,0.000000000000000000e+00,0.000000000000000000e+00,-6.995006537832284543e+00,-6.202192935700433507e-01,1.304339134862256833e+00,0.000000000000000000e+00,0.000000000000000000e+00,0.000000000000000000e+00,4.556844179115987714e+01,-1.519407652147182830e+01
1.618437500000000431e-02,0.000000000000000000e+00,0.000000000000000000e+00,3.145683728312739236e-01,0.000000000000000000e+00,0.000000000000000000e+00,8.771194503418374921e+00,5.113189301778752416e+00,-2.752770206116291529e+00,0.000000000000000000e+00,0.000000000000000000e+00,0.000000000000000000e+00,4.564087579672423800e+01,-1.521512890705060883e+01
1.620937500000000156e-02,0.000000000000000000e+00,0.000000000000000000e+00,3.146517491950865941e-01,0.000000000000000000e+00,0.000000000000000000e+00,-1.107425702339626117e+00,8.600954397207683400e+00,-4.904769317518454130e+00,0.000000000000000000e+00,0.000000000000000000e+00,0.000000000000000000e+00,4.571151535845247338e+01,-1.523757912629811351e+01
1.625937499999999605e-02,0.000000000000000000e+00,0.000000000000000000e+00,3.140014021125274724e-01,0.000000000000000000e+00,0.000000000000000000e+00,-1.380524754081026906e+01,1.054951004478607013e+00,3.605078204977450462e-01,0.000000000000000000e+00,0.000000000000000000e+00,0.000000000000000000e+00,4.585256175009799051e+01,-1.528634118976470724e+01
1.630937499999999055e-02,0.000000000000000000e+00,0.000000000000000000e+00,3.135924857693543344e-01,0.000000000000000000e+00,0.000000000000000000e+00,1.043248154946769723e+01,-3.764924594564411642e-01,7.611298022058258228e-01,0.000000000000000000e+00,0.000000000000000000e+00,0.000000000000000000e+00,4.599344875827289059e+01,-1.532890711341419632e+01
1.635937499999999198e-02,0.000000000000000000e+00,0.000000000000000000e+00,3.148031123135607845e-01,0.000000000000000000e+00,0.000000000000000000e+00,4.236095715805196704e+01,8.227410896238872562e-01,-3.182810134321236717e-01,0.000000000000000000e+00,0.000000000000000000e+00,0.000000000000000000e+00,4.613430534063217436e+01,-1.537254624317382579e+01
1.640937499999999341e-02,0.000000000000000000e+00,0.000000000000000000e+00,3.170859569125694111e-01,0.000000000000000000e+00,0.000000000000000000e+00,4.647318479138087355e+01,7.111113316693375097e+00,-4.219565067467689445e+00,0.000000000000000000e+00,0.000000000000000000e+00,0.000000000000000000e+00,4.627517991527335539e+01,-1.542187278261100936e+01
1.645937499999999484e-02,0.000000000000000000e+00,0.000000000000000000e+00,3.183318897170122619e-01,0.000000000000000000e+00,0.000000000000000000e+00,1.404065965668128690e+01,2.604084080920145539e+00,-7.039702562048685275e-01,0.000000000000000000e+00,0.000000000000000000e+00,0.000000000000000000e+00,4.641607082250170180e+01,-1.547576163768012414e+01
1.650937499999999628e-02,0.000000000000000000e+00,0.000000000000000000e+00,3.194251841467112829e-01,0.000000000000000000e+00,0.000000000000000000e+00,3.392377120667148205e+01,1.908721589083996362e+00,-5.525614885540954813e-01,0.000000000000000000e+00,0.000000000000000000e+00,0.000000000000000000e+00,4.655697638379676562e+01,-1.552227876314326771e+01
1.655937499999999771e-02,0.000000000000000000e+00,0.000000000000000000e+00,3.215063409709781328e-01,0.000000000000000000e+00,0.000000000000000000e+00,5.191550675428045736e+01,1.986130057897580681e+00,-8.087907828610358951e-01,0.000000000000000000e+00,0.000000000000000000e+00,0.000000000000000000e+00,4.669789496885486102e+01,-1.556577681840761151e+01
1.660937499999999914e-02,0.000000000000000000e+00,0.000000000000000000e+00,3.238576152143360365e-01,0.000000000000000000e+00,0.000000000000000000e+00,4.232822164531411602e+01,6.044165525375468029e+00,-3.291946875654943927e+00,0.000000000000000000e+00,0.000000000000000000e+00,0.000000000000000000e+00,4.683805036189376381e+01,-1.561222522909730870e+01
1.665937500000000057e-02,0.000000000000000000e+00,0.000000000000000000e+00,3.254815335198133486e-01,0.000000000000000000e+00,0.000000000000000000e+00,2.253714442539910934e+01,1.855641289407232275e+00,-1.757873191733084484e-01,0.000000000000000000e+00,0.000000000000000000e+00,0.000000000000000000e+00,4.697976379882479137e+01,-1.566166320323040750e+01
1.670937500000000200e-02,0.000000000000000000e+00,0.000000000000000000e+00,3.266411902468496775e-01,0.000000000000000000e+00,0.000000000000000000e+00,2.381476559463943232e+01,1.673458630303772843e+00,-4.348359119961214825e-01,0.000000000000000000e+00,0.000000000000000000e+00,0.000000000000000000e+00,4.712016374398631768e+01,-1.570828820443932017e+01
1.675937500000000344e-02,0.000000000000000000e+00,0.000000000000000000e+00,3.282850715587656287e-01,0.000000000000000000e+00,0.000000000000000000e+00,4.188512724969883294e+01,1.647703069369778950e+00,-6.158573664846489493e-01,0.000000000000000000e+00,0.000000000000000000e+00,0.000000000000000000e+00,4.726166595877990062e+01,-1.575289635814661082e+01
1.680937500000000487e-02,0.000000000000000000e+00,0.000000000000000000e+00,3.305542782646848088e-01,0.000000000000000000e+00,0.000000000000000000e+00,4.897593628243766517e+01,2.297814848091932927e+00,-1.149912353869992465e+00,0.000000000000000000e+00,0.000000000000000000e+00,0.000000000000000000e+00,4.740224801657278419e+01,-1.579946635820564893e+01
1.685937500000000630e-02,0.000000000000000000e+00,0.000000000000000000e+00,3.322877836881281133e-01,0.000000000000000000e+00,0.000000000000000000e+00,2.046712627321773681e+01,5.919799340291282519e+00,-3.184552657930379560e+00,0.000000000000000000e+00,0.000000000000000000e+00,0.000000000000000000e+00,4.754359351856481908e+01,-1.584846740557103928e+01
1.690937500000000773e-02,0.000000000000000000e+00,0.000000000000000000e+00,3.326309435521644375e-01,0.000000000000000000e+00,0.000000000000000000e+00,-6.821367359138164943e+00,1.731891321216071145e+00,-1.206164597056083726e-01,0.000000000000000000e+00,0.000000000000000000e+00,0.000000000000000000e+00,4.768431014816355429e+01,-1.589839949086643500e+01
1.695937500000000916e-02,0.000000000000000000e+00,0.000000000000000000e+00,3.329465706686314252e-01,0.000000000000000000e+00,0.000000000000000000e+00,1.924978680540058207e+01,1.939573784001831447e+00,-7.633900445496921705e-01,0.000000000000000000e+00,0.000000000000000000e+00,0.000000000000000000e+00,4.782554035827364913e+01,-1.594468381120343636e+01
1.700937500000001060e-02,0.000000000000000000e+00,0.000000000000000000e+00,3.342070682291978234e-01,0.000000000000000000e+00,0.000000000000000000e+00,3.144893330266296871e+01,1.847043334725036789e+00,-8.334086180496490526e-01,0.000000000000000000e+00,0.000000000000000000e+00,0.000000000000000000e+00,4.796673809039621972e+01,-1.598876217106410458e+01
1.705937500000001203e-02,0.000000000000000000e+00,0.000000000000000000e+00,3.360388911943017476e-01,0.000000000000000000e+00,0.000000000000000000e+00,4.216365202723102357e+01,2.066673274172327268e+00,-1.001821034455229631e+00,0.000000000000000000e+00,0.000000000000000000e+00,0.000000000000000000e+00,4.810785697113252013e+01,-1.603435536884747137e+01
1.710937500000001346e-02,0.000000000000000000e+00,0.000000000000000000e+00,3.369168839205300414e-01,0.000000000000000000e+00,0.000000000000000000e+00,-1.221709924746134313e+01,3.034968198592439492e+00,-8.955696486167727954e-01,0.000000000000000000e+00,0.000000000000000000e+00,0.000000000000000000e+00,4.824891982587238459e+01,-1.608395136304892858e+01
1.715937500000001489e-02,0.000000000000000000e+00,0.000000000000000000e+00,3.365031851860806333e-01,0.000000000000000000e+00,0.000000000000000000e+00,3.319555201214761109e+00,1.725352252089128680e+00,-3.871483725762994155e-01,0.000000000000000000e+00,0.000000000000000000e+00,0.000000000000000000e+00,4.838994365290402300e+01,-1.613293835469423954e+01
1.720937500000001633e-02,0.000000000000000000e+00,0.000000000000000000e+00,3.370294439120313790e-01,0.000000000000000000e+00,0.000000000000000000e+00,2.118363348296350068e+01,1.480496947870211244e+00,-5.290001809515400000e-01,0.000000000000000000e+00,0.000000000000000000e+00,0.000000000000000000e+00,4.853094101369843116e+01,-1.617806676101054109e+01
1.725937500000001776e-02,0.000000000000000000e+00,0.000000000000000000e+00,3.384305037684218198e-01,0.000000000000000000e+00,0.000000000000000000e+00,3.495255934065936287e+01,1.656099565604201906e+00,-7.717595855284091755e-01,0.000000000000000000e+00,0.000000000000000000e+00,0.000000000000000000e+00,4.867094799461580834e+01,-1.622262390098854468e+01
1.730937500000001919e-02,0.000000000000000000e+00,0.000000000000000000e+00,3.396367109434222376e-01,0.000000000000000000e+00,0.000000000000000000e+00,1.339652944603582085e+01,5.498426953142923068e+00,-3.074208615069989659e+00,0.000000000000000000e+00,0.000000000000000000e+00,0.000000000000000000e+00,4.881291076360185599e+01,-1.626995296719007555e+01
1.735937500000002062e-02,0.000000000000000000e+00,0.000000000000000000e+00,3.397820619614292381e-01,0.000000000000000000e+00,0.000000000000000000e+00,-7.658197693841075626e+00,1.244599196095272697e+00,1.330310749060694964e-01,0.000000000000000000e+00,0.000000000000000000e+00,0.000000000000000000e+00,4.895298212488153666e+01,-1.631949270316184553e+01
1.740937500000002205e-02,0.000000000000000000e+00,0.000000000000000000e+00,3.402371652878653507e-01,0.000000000000000000e+00,0.000000000000000000e+00,2.565724745397107398e+01,1.685011134596527516e+00,-6.782363527101747946e-01,0.000000000000000000e+00,0.000000000000000000e+00,0.000000000000000000e+00,4.909487383170301911e+01,-1.636669221557029630e+01
1.745937500000002349e-02,0.000000000000000000e+00,0.000000000000000000e+00,3.419294635414119043e-01,0.000000000000000000e+00,0.000000000000000000e+00,4.226378112172692880e+01,1.508733683057970953e+00,-6.481618508264996859e-01,0.000000000000000000e+00,0.000000000000000000e+00,0.000000000000000000e+00,4.923502095678755808e+01,-1.641160484139562925e+01
1.750937500000002492e-02,0.000000000000000000e+00,0.000000000000000000e+00,3.439786204669273983e-01,0.000000000000000000e+00,0.000000000000000000e+00,3.962794759864036820e+01,1.675528978324792417e+00,-7.586553141794244448e-01,0.000000000000000000e+00,0.000000000000000000e+00,0.000000000000000000e+00,4.937683384910832984e+01,-1.645688612645450632e+01
1.755937500000002635e-02,0.000000000000000000e+00,0.000000000000000000e+00,3.453394433548839793e-01,0.000000000000000000e+00,0.000000000000000000e+00,1.496457976626014563e+01,5.586603588855996172e+00,-3.155999282516452009e+00,0.000000000000000000e+00,0.000000000000000000e+00,0.000000000000000000e+00,4.951706147160988536e+01,-1.650464549861727193e+01
1.760937500000002778e-02,0.000000000000000000e+00,0.000000000000000000e+00,3.460916064880518728e-01,0.000000000000000000e+00,0.000000000000000000e+00,1.488822301609686072e+01,1.999616564860370538e+00,-4.818836179763886784e-01,0.000000000000000000e+00,0.000000000000000000e+00,0.000000000000000000e+00,4.965879330832981253e+01,-1.655564603686677216e+01
1.765937500000002922e-02,0.000000000000000000e+00,0.000000000000000000e+00,3.474085696448762084e-01,0.000000000000000000e+00,0.000000000000000000e+00,3.785005273188610886e+01,2.131117975690563604e+00,-9.544649073557659458e-01,0.000000000000000000e+00,0.000000000000000000e+00,0.000000000000000000e+00,4.979910162800969431e+01,-1.660348992558856551e+01
1.770937500000003065e-02,0.000000000000000000e+00,0.000000000000000000e+00,3.495891660036880566e-01,0.000000000000000000e+00,0.000000000000000000e+00,4.938502143309255388e+01,1.675679626430810476e+00,-7.693938514621654345e-01,0.000000000000000000e+00,0.000000000000000000e+00,0.000000000000000000e+00,4.994075386483964962e+01,-1.664737298223936079e+01
1.780937500000003004e-02,0.000000000000000000e+00,0.000000000000000000e+00,3.529468304907840692e-01,0.000000000000000000e+00,0.000000000000000000e+00,1.796563169132708637e+01,4.490835864850872383e+00,-2.455311453575701908e+00,0.000000000000000000e+00,0.000000000000000000e+00,0.000000000000000000e+00,5.022215748221995568e+01,-1.673966052716629704e+01
1.790937500000002944e-02,0.000000000000000000e+00,0.000000000000000000e+00,3.546512548657332342e-01,0.000000000000000000e+00,0.000000000000000000e+00,1.583916129337989531e+01,7.788974833423445432e-01,1.297707157320082405e-01,0.000000000000000000e+00,0.000000000000000000e+00,0.000000000000000000e+00,5.050468527648341421e+01,-1.683653743660100233e+01
1.800937500000002883e-02,0.000000000000000000e+00,0.000000000000000000e+00,3.570547998320089400e-01,0.000000000000000000e+00,0.000000000000000000e+00,3.234889288467391566e+01,2.093705092072896345e+00,-1.227917271008728051e+00,0.000000000000000000e+00,0.000000000000000000e+00,0.000000000000000000e+00,5.078621831673244458e+01,-1.692854032154470900e+01
