time[s],flange_omega_x[rad/s],flange_omega_y[rad/s],flange_omega_z[rad/s],flange_alpha_x[rad/s2],flange_alpha_y[rad/s2],flange_alpha_z[rad/s2],cycloid_acc_x[m/s2],cycloid_acc_y[m/s2],cycloid_acc_z[m/s2],input_omega_x[rad/s],input_omega_y[rad/s],input_omega_z[rad/s],crank_omega_z[rad/s]
0.000000000000000000e+00,0.000000000000000000e+00,0.000000000000000000e+00,0.000000000000000000e+00,0.000000000000000000e+00,0.000000000000000000e+00,7.701947378638139526e+03,-9.007359125380502007e+01,1.802990128583228397e+02,0.000000000000000000e+00,0.000000000000000000e+00,0.000000000000000000e+00,0.000000000000000000e+00,0.000000000000000000e+00
5.000000000000002950e-05,0.000000000000000000e+00,0.000000000000000000e+00,6.590405254548385543e-03,0.000000000000000000e+00,0.000000000000000000e+00,7.523481204505885422e+00,2.488340914028400164e+01,1.849355646440186618e+01,0.000000000000000000e+00,0.000000000000000000e+00,0.000000000000000000e+00,1.410004617822327999e-01,-9.355327300465082763e-02
9.999999999999982861e-05,0.000000000000000000e+00,0.000000000000000000e+00,7.760993470994496761e-03,0.000000000000000000e+00,0.000000000000000000e+00,3.067729626564936041e+01,6.852206301437190561e+00,1.422385695997569321e+01,0.000000000000000000e+00,0.000000000000000000e+00,0.000000000000000000e+00,2.820000010888882302e-01,-1.315454378772654698e-01
1.507812499999995756e-04,0.000000000000000000e+00,0.000000000000000000e+00,9.667499090575600376e-03,0.000000000000000000e+00,0.000000000000000000e+00,4.570348608687099556e+01,1.092929734674362052e+00,7.030977350062662445e+00,0.000000000000000000e+00,0.000000000000000000e+00,0.000000000000000000e+00,4.252031250025443132e-01,-1.197605820253729997e-01
2.039062499999996336e-04,0.000000000000000000e+00,0.000000000000000000e+00,1.230760238543269526e-02,0.000000000000000000e+00,0.000000000000000000e+00,5.288501390520505652e+01,1.122665800482506304e+00,4.853518893649136245e+00,0.000000000000000000e+00,0.000000000000000000e+00,0.000000000000000000e+00,5.750156250052039786e-01,-1.834588466599396117e-01
2.539062499999995750e-04,0.000000000000000000e+00,0.000000000000000000e+00,1.524377812225496433e-02,0.000000000000000000e+00,0.000000000000000000e+00,5.457467526312797901e+01,5.160908038195809233e+00,4.086642811897030825e+00,0.000000000000000000e+00,0.000000000000000000e+00,0.000000000000000000e+00,7.160156250030910163e-01,-2.368062840725271845e-01
3.101562499999995599e-04,0.000000000000000000e+00,0.000000000000000000e+00,1.758340686369039979e-02,0.000000000000000000e+00,0.000000000000000000e+00,9.376719585953107128e+01,-5.043308511760502100e+00,-1.547358998020792242e+00,0.000000000000000000e+00,0.000000000000000000e+00,0.000000000000000000e+00,8.746406250015728023e-01,-2.934364056455474046e-01
3.601562499999994742e-04,0.000000000000000000e+00,0.000000000000000000e+00,2.394594498599720081e-02,0.000000000000000000e+00,0.000000000000000000e+00,1.488488206489231516e+02,-3.959520228415968290e+00,-6.602800569414342569e+00,0.000000000000000000e+00,0.000000000000000000e+00,0.000000000000000000e+00,1.015640625000821418e+00,-3.414591165488268243e-01
4.226562499999994213e-04,0.000000000000000000e+00,0.000000000000000000e+00,3.363542225791341100e-02,0.000000000000000000e+00,0.000000000000000000e+00,1.544890640458822872e+02,1.351150371730264421e+00,-1.119878385156518341e+01,0.000000000000000000e+00,0.000000000000000000e+00,0.000000000000000000e+00,1.191890625000324722e+00,-4.025764052096449386e-01
4.539062499999994491e-04,0.000000000000000000e+00,0.000000000000000000e+00,3.784480356327412504e-02,0.000000000000000000e+00,0.000000000000000000e+00,1.219696375430305153e+02,2.633648447809524562e+00,-1.296033467496976321e+01,0.000000000000000000e+00,0.000000000000000000e+00,0.000000000000000000e+00,1.280004700413849505e+00,-4.339543703122125673e-01
5.039062499999994718e-04,0.000000000000000000e+00,0.000000000000000000e+00,4.330855334258245509e-02,0.000000000000000000e+00,0.000000000000000000e+00,9.917128790997621479e+01,2.200319120721999422e+00,-1.444995166219774418e+01,0.000000000000000000e+00,0.000000000000000000e+00,0.000000000000000000e+00,1.420973300914304627e+00,-4.756803502895069480e-01
5.601562499999995651e-04,0.000000000000000000e+00,0.000000000000000000e+00,4.861123877378381586e-02,0.000000000000000000e+00,0.000000000000000000e+00,8.528585154368275312e+01,1.807271611285671042e+00,-1.354104577940515242e+01,0.000000000000000000e+00,0.000000000000000000e+00,0.000000000000000000e+00,1.579678884280530049e+00,-5.246247983876322074e-01
6.101562499999996962e-04,0.000000000000000000e+00,0.000000000000000000e+00,5.235758970817296770e-02,0.000000000000000000e+00,0.000000000000000000e+00,5.642706002081531125e+01,1.963967475808627849e+00,-1.105284781953629114e+01,0.000000000000000000e+00,0.000000000000000000e+00,0.000000000000000000e+00,1.720672609696838773e+00,-5.749962430670376712e-01
6.601562499999998274e-04,0.000000000000000000e+00,0.000000000000000000e+00,5.453968036491039367e-02,0.000000000000000000e+00,0.000000000000000000e+00,4.051162706628038279e+01,2.414088696309373727e+00,-7.187808880857089910e+00,0.000000000000000000e+00,0.000000000000000000e+00,0.000000000000000000e+00,1.861666125953372442e+00,-6.180870915007357080e-01
7.101562499999998501e-04,0.000000000000000000e+00,0.000000000000000000e+00,5.701270413324650149e-02,0.000000000000000000e+00,0.000000000000000000e+00,5.912095137581594884e+01,4.002335111173829674e+00,-3.648897857939658707e+00,0.000000000000000000e+00,0.000000000000000000e+00,0.000000000000000000e+00,2.002620878834806994e+00,-6.661011209039476855e-01
7.601562499999997644e-04,0.000000000000000000e+00,0.000000000000000000e+00,6.003719287906248564e-02,0.000000000000000000e+00,0.000000000000000000e+00,5.535640572184806985e+01,5.292610241672882410e+00,-9.758393367931098572e-01,0.000000000000000000e+00,0.000000000000000000e+00,0.000000000000000000e+00,2.143625424465632978e+00,-7.172271634062195034e-01
8.101562499999996787e-04,0.000000000000000000e+00,0.000000000000000000e+00,6.305411777087496783e-02,0.000000000000000000e+00,0.000000000000000000e+00,6.471501508091782284e+01,5.720773250525551745e+00,8.417963082435648836e-01,0.000000000000000000e+00,0.000000000000000000e+00,0.000000000000000000e+00,2.284628955593288602e+00,-7.676502354433689668e-01
8.601562499999995930e-04,0.000000000000000000e+00,0.000000000000000000e+00,6.639033911091603291e-02,0.000000000000000000e+00,0.000000000000000000e+00,6.663757282218885791e+01,4.241094044632868432e+00,2.352969233622447476e+00,0.000000000000000000e+00,0.000000000000000000e+00,0.000000000000000000e+00,2.425631693631721042e+00,-8.112384152649640967e-01
9.101562499999995073e-04,0.000000000000000000e+00,0.000000000000000000e+00,6.918581815919311317e-02,0.000000000000000000e+00,0.000000000000000000e+00,4.670912392153346104e+01,1.384869519467744725e+00,3.212195477728191140e+00,0.000000000000000000e+00,0.000000000000000000e+00,0.000000000000000000e+00,2.566633812481101007e+00,-8.570239415400942029e-01
9.539062499999993510e-04,0.000000000000000000e+00,0.000000000000000000e+00,7.099064958932055358e-02,0.000000000000000000e+00,0.000000000000000000e+00,3.702745457196680690e+01,2.038115860923080280e+00,4.184232011065145862e+00,0.000000000000000000e+00,0.000000000000000000e+00,0.000000000000000000e+00,2.689933282429119554e+00,-8.998378371675511689e-01
1.003906249999999157e-03,0.000000000000000000e+00,0.000000000000000000e+00,7.265821530151632401e-02,0.000000000000000000e+00,0.000000000000000000e+00,2.967530984034396013e+01,3.899321902075865154e+00,4.990556535886478073e+00,0.000000000000000000e+00,0.000000000000000000e+00,0.000000000000000000e+00,2.830850261345751129e+00,-9.464897728385669451e-01
1.053906249999998854e-03,0.000000000000000000e+00,0.000000000000000000e+00,7.380008925603633030e-02,0.000000000000000000e+00,0.000000000000000000e+00,1.488775984082018766e+01,4.711027180668303949e+00,5.098910908314822521e+00,0.000000000000000000e+00,0.000000000000000000e+00,0.000000000000000000e+00,2.971766877028627185e+00,-9.997295642028631857e-01
1.110156249999998514e-03,0.000000000000000000e+00,0.000000000000000000e+00,7.394889608523322333e-02,0.000000000000000000e+00,0.000000000000000000e+00,-1.140319235482669491e+01,4.151342775684191189e+00,3.768955183695807065e+00,0.000000000000000000e+00,0.000000000000000000e+00,0.000000000000000000e+00,3.130837913307943587e+00,-1.044377519815683941e+00
1.153906249999998249e-03,0.000000000000000000e+00,0.000000000000000000e+00,7.297299426516344611e-02,0.000000000000000000e+00,0.000000000000000000e+00,-3.113263099633815401e+01,1.985641356446890438e+00,1.588559878441350159e+00,0.000000000000000000e+00,0.000000000000000000e+00,0.000000000000000000e+00,3.253725401747125101e+00,-1.081760725739684847e+00
1.203906249999997947e-03,0.000000000000000000e+00,0.000000000000000000e+00,7.125999995386107788e-02,0.000000000000000000e+00,0.000000000000000000e+00,-3.631844570232616576e+01,1.798537757637499235e+00,3.327372033382047234e-01,0.000000000000000000e+00,0.000000000000000000e+00,0.000000000000000000e+00,3.394787547938187267e+00,-1.129557738673102607e+00
1.253906249999997644e-03,0.000000000000000000e+00,0.000000000000000000e+00,6.942927732358573911e-02,0.000000000000000000e+00,0.000000000000000000e+00,-3.534443977246610302e+01,1.523269430814024661e+00,-8.824328539500854163e-01,0.000000000000000000e+00,0.000000000000000000e+00,0.000000000000000000e+00,3.536246064949472689e+00,-1.177091184731966500e+00
1.303906249999997342e-03,0.000000000000000000e+00,0.000000000000000000e+00,6.775024878773845682e-02,0.000000000000000000e+00,0.000000000000000000e+00,-3.281102495791990492e+01,-2.102306786885055345e+00,-2.302196442350362027e+00,0.000000000000000000e+00,0.000000000000000000e+00,0.000000000000000000e+00,3.677257809865279725e+00,-1.225986883256938276e+00
1.353906249999997039e-03,0.000000000000000000e+00,0.000000000000000000e+00,6.607387789745856888e-02,0.000000000000000000e+00,0.000000000000000000e+00,-3.707008362485361630e+01,-1.287616746542791013e+00,-2.147727546528912068e+00,0.000000000000000000e+00,0.000000000000000000e+00,0.000000000000000000e+00,3.818201246880773780e+00,-1.273012781716996278e+00
1.403906249999996737e-03,0.000000000000000000e+00,0.000000000000000000e+00,6.400567587236419276e-02,0.000000000000000000e+00,0.000000000000000000e+00,-4.679295720592526919e+01,-9.959632220118926071e-02,-2.391114907885831808e+00,0.000000000000000000e+00,0.000000000000000000e+00,0.000000000000000000e+00,3.959273113284717649e+00,-1.318391901636872143e+00
1.453906249999996434e-03,0.000000000000000000e+00,0.000000000000000000e+00,6.116882169365633892e-02,0.000000000000000000e+00,0.000000000000000000e+00,-7.078445771727660940e+01,-2.780510521044365913e-01,-2.248322106382364183e+00,0.000000000000000000e+00,0.000000000000000000e+00,0.000000000000000000e+00,4.099815167973492436e+00,-1.365435977853690863e+00
1.503906249999996132e-03,0.000000000000000000e+00,0.000000000000000000e+00,5.676675801500195850e-02,0.000000000000000000e+00,0.000000000000000000e+00,-1.042953241657702677e+02,-1.100793558265927174e+00,-9.296925986254840346e-01,0.000000000000000000e+00,0.000000000000000000e+00,0.000000000000000000e+00,4.240864686900970959e+00,-1.416659350188783639e+00
1.566406249999995970e-03,0.000000000000000000e+00,0.000000000000000000e+00,4.950773454340069019e-02,0.000000000000000000e+00,0.000000000000000000e+00,-1.209459981558028403e+02,-2.410541425747413147e+00,-1.311454600157440850e-02,0.000000000000000000e+00,0.000000000000000000e+00,0.000000000000000000e+00,4.417162130951850507e+00,-1.475613518993945439e+00
1.603906249999995743e-03,0.000000000000000000e+00,0.000000000000000000e+00,4.517764987487613709e-02,0.000000000000000000e+00,0.000000000000000000e+00,-1.109045014211378799e+02,-2.659867914674549638e+00,-4.171299983589156213e-01,0.000000000000000000e+00,0.000000000000000000e+00,0.000000000000000000e+00,4.522874020086396385e+00,-1.511295947886326596e+00
1.653906249999995441e-03,0.000000000000000000e+00,0.000000000000000000e+00,4.028928918057389508e-02,0.000000000000000000e+00,0.000000000000000000e+00,-8.215296964618211462e+01,-2.317344891709190335e+00,-1.438947535541621470e+00,0.000000000000000000e+00,0.000000000000000000e+00,0.000000000000000000e+00,4.663732840861059437e+00,-1.558666274027270315e+00
1.703906249999995138e-03,0.000000000000000000e+00,0.000000000000000000e+00,3.685937787308517927e-02,0.000000000000000000e+00,0.000000000000000000e+00,-5.818428381694476315e+01,-9.902492987704156757e-01,-2.436303428261046733e+00,0.000000000000000000e+00,0.000000000000000000e+00,0.000000000000000000e+00,4.804920164805460026e+00,-1.605532299951384800e+00
1.753906249999994836e-03,0.000000000000000000e+00,0.000000000000000000e+00,3.432840821644607410e-02,0.000000000000000000e+00,0.000000000000000000e+00,-4.208290856993702533e+01,-1.886640345801417484e-01,-2.904903238010388744e+00,0.000000000000000000e+00,0.000000000000000000e+00,0.000000000000000000e+00,4.946039859693303065e+00,-1.650931972979685414e+00
1.803906249999994533e-03,0.000000000000000000e+00,0.000000000000000000e+00,3.263428411757887670e-02,0.000000000000000000e+00,0.000000000000000000e+00,-2.937626248769709747e+01,-1.190083023835524778e-01,-2.611720393068136303e+00,0.000000000000000000e+00,0.000000000000000000e+00,0.000000000000000000e+00,5.087006807307790979e+00,-1.696820792253616039e+00
1.866406249999994372e-03,0.000000000000000000e+00,0.000000000000000000e+00,3.147463203567493067e-02,0.000000000000000000e+00,0.000000000000000000e+00,-4.084373787217798757e+00,-3.548344327657644848e-01,-1.902389666461393736e+00,0.000000000000000000e+00,0.000000000000000000e+00,0.000000000000000000e+00,5.263241462358419831e+00,-1.754569990882881125e+00
1.916406249999994503e-03,0.000000000000000000e+00,0.000000000000000000e+00,3.179028773836275329e-02,0.000000000000000000e+00,0.000000000000000000e+00,1.584730671762206811e+01,2.769358368357830447e-01,-5.567980333734801057e-01,0.000000000000000000e+00,0.000000000000000000e+00,0.000000000000000000e+00,5.404235986244308343e+00,-1.800314748192256120e+00
1.966406249999994634e-03,0.000000000000000000e+00,0.000000000000000000e+00,3.294626906304647107e-02,0.000000000000000000e+00,0.000000000000000000e+00,3.116132520536706707e+01,1.834230652808760187e+00,9.539317462583590812e-01,0.000000000000000000e+00,0.000000000000000000e+00,0.000000000000000000e+00,5.545233463324922951e+00,-1.846233062513533474e+00
2.016406249999994332e-03,0.000000000000000000e+00,0.000000000000000000e+00,3.473802015972984880e-02,0.000000000000000000e+00,0.000000000000000000e+00,4.046860471778971657e+01,3.270161300669473192e+00,1.940479674521760067e+00,0.000000000000000000e+00,0.000000000000000000e+00,0.000000000000000000e+00,5.686232969074032972e+00,-1.892432614091693832e+00
2.066406249999994029e-03,0.000000000000000000e+00,0.000000000000000000e+00,3.694720653219637357e-02,0.000000000000000000e+00,0.000000000000000000e+00,4.867677997763472320e+01,4.264136088906557376e+00,2.482340647327700101e+00,0.000000000000000000e+00,0.000000000000000000e+00,0.000000000000000000e+00,5.827233823674921709e+00,-1.940359093673051705e+00
2.116406249999993727e-03,0.000000000000000000e+00,0.000000000000000000e+00,3.964881225018665467e-02,0.000000000000000000e+00,0.000000000000000000e+00,5.987650689957754935e+01,4.756986705103031454e+00,2.396611406898962571e+00,0.000000000000000000e+00,0.000000000000000000e+00,0.000000000000000000e+00,5.968235532406251487e+00,-1.990031278054715580e+00
2.191406249999993706e-03,0.000000000000000000e+00,0.000000000000000000e+00,4.466985302237978100e-02,0.000000000000000000e+00,0.000000000000000000e+00,7.364734394969460141e+01,5.006121077511006767e+00,1.717049949093998773e+00,0.000000000000000000e+00,0.000000000000000000e+00,0.000000000000000000e+00,6.179738742946745411e+00,-2.061253184440162922e+00
2.216406249999993555e-03,0.000000000000000000e+00,0.000000000000000000e+00,4.647436896924565103e-02,0.000000000000000000e+00,0.000000000000000000e+00,7.673828901153014215e+01,5.058968599481157291e+00,1.443431967333169474e+00,0.000000000000000000e+00,0.000000000000000000e+00,0.000000000000000000e+00,6.250137423904591039e+00,-2.083720328247574916e+00
2.253906249999993328e-03,0.000000000000000000e+00,0.000000000000000000e+00,4.938261374847491975e-02,0.000000000000000000e+00,0.000000000000000000e+00,8.059660475834864712e+01,5.119149412744056882e+00,1.039775457163147676e+00,0.000000000000000000e+00,0.000000000000000000e+00,0.000000000000000000e+00,6.355841978461715058e+00,-2.119097983201191582e+00
2.303906249999993026e-03,0.000000000000000000e+00,0.000000000000000000e+00,5.347481970584532646e-02,0.000000000000000000e+00,0.000000000000000000e+00,8.232858596307706023e+01,5.121008134395187206e+00,5.985873640329482104e-01,0.000000000000000000e+00,0.000000000000000000e+00,0.000000000000000000e+00,6.496668031932511411e+00,-2.166481371154553859e+00
2.353906249999992723e-03,0.000000000000000000e+00,0.000000000000000000e+00,5.758466293521848772e-02,0.000000000000000000e+00,0.000000000000000000e+00,8.149198480429869562e+01,5.033956992114463347e+00,2.223159689096399494e-01,0.000000000000000000e+00,0.000000000000000000e+00,0.000000000000000000e+00,6.637634262517304151e+00,-2.213360799381026478e+00
2.416406249999992345e-03,0.000000000000000000e+00,0.000000000000000000e+00,6.258595497369495719e-02,0.000000000000000000e+00,0.000000000000000000e+00,7.814480392927626440e+01,4.747363176048167155e+00,-2.505145944933888091e-01,0.000000000000000000e+00,0.000000000000000000e+00,0.000000000000000000e+00,6.813924056640102478e+00,-2.272626374208154942e+00
2.466406249999992042e-03,0.000000000000000000e+00,0.000000000000000000e+00,6.638412565554410727e-02,0.000000000000000000e+00,0.000000000000000000e+00,7.339035595228283171e+01,4.375148896196666470e+00,-6.288514491386154592e-01,0.000000000000000000e+00,0.000000000000000000e+00,0.000000000000000000e+00,6.954963167380222799e+00,-2.320236004908913685e+00
2.516406249999991740e-03,0.000000000000000000e+00,0.000000000000000000e+00,6.988524800492770805e-02,0.000000000000000000e+00,0.000000000000000000e+00,6.625854086204677174e+01,3.940819861852714379e+00,-9.636412507414862105e-01,0.000000000000000000e+00,0.000000000000000000e+00,0.000000000000000000e+00,7.095999746657022378e+00,-2.367424018111184747e+00
2.566406249999991437e-03,0.000000000000000000e+00,0.000000000000000000e+00,7.297160900735893962e-02,0.000000000000000000e+00,0.000000000000000000e+00,5.688977862409313246e+01,3.493881966405135930e+00,-1.161935800464696689e+00,0.000000000000000000e+00,0.000000000000000000e+00,0.000000000000000000e+00,7.237033344528868817e+00,-2.414330638940983320e+00
2.616406249999991135e-03,0.000000000000000000e+00,0.000000000000000000e+00,7.548681311352974099e-02,0.000000000000000000e+00,0.000000000000000000e+00,4.318329021137756740e+01,3.195573700728455258e+00,-1.131803468741353624e+00,0.000000000000000000e+00,0.000000000000000000e+00,0.000000000000000000e+00,7.378063773417360416e+00,-2.460163588790867717e+00
2.666406249999990832e-03,0.000000000000000000e+00,0.000000000000000000e+00,7.712920787318014448e-02,0.000000000000000000e+00,0.000000000000000000e+00,2.092717667100464496e+01,3.714744832852011402e+00,-4.540154436993031895e-01,0.000000000000000000e+00,0.000000000000000000e+00,0.000000000000000000e+00,7.519091024653326905e+00,-2.503339461026105273e+00
2.716406249999990530e-03,0.000000000000000000e+00,0.000000000000000000e+00,7.759259751621516710e-02,0.000000000000000000e+00,0.000000000000000000e+00,-5.328613939738698901e-01,4.160308557929193185e+00,2.792335351638630669e-01,0.000000000000000000e+00,0.000000000000000000e+00,0.000000000000000000e+00,7.659962230942447547e+00,-2.549462055962127938e+00
2.766406249999990227e-03,0.000000000000000000e+00,0.000000000000000000e+00,7.728614977019725163e-02,0.000000000000000000e+00,0.000000000000000000e+00,-1.117984530712310054e+01,3.970359703165341259e+00,2.938946231937779596e-01,0.000000000000000000e+00,0.000000000000000000e+00,0.000000000000000000e+00,7.800764771096246442e+00,-2.600668975213498157e+00
2.816406249999989925e-03,0.000000000000000000e+00,0.000000000000000000e+00,7.658604161011206557e-02,0.000000000000000000e+00,0.000000000000000000e+00,-1.626726572822154893e+01,2.994558739721892682e+00,1.789554043702366870e-01,0.000000000000000000e+00,0.000000000000000000e+00,0.000000000000000000e+00,7.941653298517055148e+00,-2.650377596335445674e+00
2.866406249999989622e-03,0.000000000000000000e+00,0.000000000000000000e+00,7.569169231543064480e-02,0.000000000000000000e+00,0.000000000000000000e+00,-1.920827971262634648e+01,1.786563671917937857e+00,5.200478395069146886e-02,0.000000000000000000e+00,0.000000000000000000e+00,0.000000000000000000e+00,8.082602266343879904e+00,-2.698154608881819350e+00
2.916406249999989320e-03,0.000000000000000000e+00,0.000000000000000000e+00,7.470076319241078511e-02,0.000000000000000000e+00,0.000000000000000000e+00,-2.031880246466577589e+01,8.079766453404234605e-01,-1.060886873163742888e-01,0.000000000000000000e+00,0.000000000000000000e+00,0.000000000000000000e+00,8.223592731382366239e+00,-2.744617467853122328e+00
2.966406249999989017e-03,0.000000000000000000e+00,0.000000000000000000e+00,7.369797038798721334e-02,0.000000000000000000e+00,0.000000000000000000e+00,-1.964430112941312601e+01,2.169773435835381792e-01,-2.761449242955544836e-01,0.000000000000000000e+00,0.000000000000000000e+00,0.000000000000000000e+00,8.364610766953658683e+00,-2.790817930371580768e+00
3.003906249999988790e-03,0.000000000000000000e+00,0.000000000000000000e+00,7.301364837513377171e-02,0.000000000000000000e+00,0.000000000000000000e+00,-1.680407102174030243e+01,1.132209629892026725e-01,-3.737178478636949408e-01,0.000000000000000000e+00,0.000000000000000000e+00,0.000000000000000000e+00,8.471574698237594347e+00,-2.825612790973329513e+00
3.053906249999988488e-03,0.000000000000000000e+00,0.000000000000000000e+00,7.228947392227130786e-02,0.000000000000000000e+00,0.000000000000000000e+00,-1.173551844958057089e+01,2.924441989262233643e-01,-5.475976753948960107e-01,0.000000000000000000e+00,0.000000000000000000e+00,0.000000000000000000e+00,8.612453888122116652e+00,-2.872249524990166947e+00
3.116406249999988110e-03,0.000000000000000000e+00,0.000000000000000000e+00,7.177426227526616243e-02,0.000000000000000000e+00,0.000000000000000000e+00,-4.568145976219811999e+00,7.689428964166179492e-01,-5.934739786112361859e-01,0.000000000000000000e+00,0.000000000000000000e+00,0.000000000000000000e+00,8.788577708222950591e+00,-2.930296287288674417e+00
3.166406249999987807e-03,0.000000000000000000e+00,0.000000000000000000e+00,7.166989071579596415e-02,0.000000000000000000e+00,0.000000000000000000e+00,3.037022215815799453e-01,1.134294492638111551e+00,-5.471180384504430450e-01,0.000000000000000000e+00,0.000000000000000000e+00,0.000000000000000000e+00,8.929501203936650811e+00,-2.976764106682987965e+00
3.216406249999987504e-03,0.000000000000000000e+00,0.000000000000000000e+00,7.178603336577109306e-02,0.000000000000000000e+00,0.000000000000000000e+00,4.390043209596484530e+00,1.613644345249268142e+00,-4.290393150536962463e-01,0.000000000000000000e+00,0.000000000000000000e+00,0.000000000000000000e+00,9.070442505075146045e+00,-3.023549663913179586e+00
3.253906249999987278e-03,0.000000000000000000e+00,0.000000000000000000e+00,7.200493439832446330e-02,0.000000000000000000e+00,0.000000000000000000e+00,7.431720463847513614e+00,2.006355310405068870e+00,-2.573167635238052808e-01,0.000000000000000000e+00,0.000000000000000000e+00,0.000000000000000000e+00,9.176062610037609701e+00,-3.058084646614593449e+00
3.303906249999988710e-03,0.000000000000000000e+00,0.000000000000000000e+00,7.247305187617766875e-02,0.000000000000000000e+00,0.000000000000000000e+00,1.153331840512261586e+01,2.517973497960493745e+00,8.616558727494418729e-03,0.000000000000000000e+00,0.000000000000000000e+00,0.000000000000000000e+00,9.317253695436290784e+00,-3.105450890493982818e+00
3.360156249999989454e-03,0.000000000000000000e+00,0.000000000000000000e+00,7.325253441556622835e-02,0.000000000000000000e+00,0.000000000000000000e+00,1.612632149620137767e+01,2.923348042020497584e+00,3.039712660261628119e-01,0.000000000000000000e+00,0.000000000000000000e+00,0.000000000000000000e+00,9.475447324546665939e+00,-3.158741075167696977e+00
3.410156249999989151e-03,0.000000000000000000e+00,0.000000000000000000e+00,7.414921446444869280e-02,0.000000000000000000e+00,0.000000000000000000e+00,1.965242646617515732e+01,3.174885271429454647e+00,4.639508708426937078e-01,0.000000000000000000e+00,0.000000000000000000e+00,0.000000000000000000e+00,9.616495022324631492e+00,-3.205771864708427010e+00
3.460156249999988849e-03,0.000000000000000000e+00,0.000000000000000000e+00,7.515649291827676548e-02,0.000000000000000000e+00,0.000000000000000000e+00,2.022855996368229015e+01,3.375595772060568489e+00,5.100040500449509739e-01,0.000000000000000000e+00,0.000000000000000000e+00,0.000000000000000000e+00,9.757532774674848142e+00,-3.252556746244565034e+00
3.510156249999988546e-03,0.000000000000000000e+00,0.000000000000000000e+00,7.620881114885676155e-02,0.000000000000000000e+00,0.000000000000000000e+00,2.168960194184826307e+01,3.514946737885399575e+00,4.909116384251496212e-01,0.000000000000000000e+00,0.000000000000000000e+00,0.000000000000000000e+00,9.898561729111222007e+00,-3.299378744064629387e+00
3.560156249999988243e-03,0.000000000000000000e+00,0.000000000000000000e+00,7.733632656781017078e-02,0.000000000000000000e+00,0.000000000000000000e+00,2.326013742687827701e+01,3.555886559996099372e+00,4.293815494266955413e-01,0.000000000000000000e+00,0.000000000000000000e+00,0.000000000000000000e+00,1.003958357425892700e+01,-3.346419677220891842e+00
3.610156249999987941e-03,0.000000000000000000e+00,0.000000000000000000e+00,7.852115830235763261e-02,0.000000000000000000e+00,0.000000000000000000e+00,2.412503821771571566e+01,3.478634978518154064e+00,3.593769050584834646e-01,0.000000000000000000e+00,0.000000000000000000e+00,0.000000000000000000e+00,1.018059996639223108e+01,-3.393626197308090120e+00
3.660156249999987638e-03,0.000000000000000000e+00,0.000000000000000000e+00,7.975450801877959073e-02,0.000000000000000000e+00,0.000000000000000000e+00,2.509114882888941978e+01,3.340610610121220958e+00,2.566277992412703823e-01,0.000000000000000000e+00,0.000000000000000000e+00,0.000000000000000000e+00,1.032161218904618316e+01,-3.440847006672178132e+00
3.710156249999987336e-03,0.000000000000000000e+00,0.000000000000000000e+00,8.102830605223511340e-02,0.000000000000000000e+00,0.000000000000000000e+00,2.575986069025671554e+01,3.161526051113921376e+00,1.457407644552982384e-01,0.000000000000000000e+00,0.000000000000000000e+00,0.000000000000000000e+00,1.046262123486779849e+01,-3.487950701062255909e+00
3.760156249999987467e-03,0.000000000000000000e+00,0.000000000000000000e+00,8.231875588445222713e-02,0.000000000000000000e+00,0.000000000000000000e+00,2.585686595848168778e+01,2.992051444183773334e+00,3.498658036838844798e-02,0.000000000000000000e+00,0.000000000000000000e+00,0.000000000000000000e+00,1.060365295536525920e+01,-3.534829710683865311e+00
3.810156249999987598e-03,0.000000000000000000e+00,0.000000000000000000e+00,8.361023885203733297e-02,0.000000000000000000e+00,0.000000000000000000e+00,2.580409059136744787e+01,2.822302009107083176e+00,-7.221391176477090501e-02,0.000000000000000000e+00,0.000000000000000000e+00,0.000000000000000000e+00,1.074463413634947351e+01,-3.581857788260191189e+00
3.860156249999987729e-03,0.000000000000000000e+00,0.000000000000000000e+00,8.492181783577729126e-02,0.000000000000000000e+00,0.000000000000000000e+00,2.665356063349864613e+01,2.641579804333515025e+00,-1.727360697901821618e-01,0.000000000000000000e+00,0.000000000000000000e+00,0.000000000000000000e+00,1.088564231697493589e+01,-3.629144967503687980e+00
3.910156249999987427e-03,0.000000000000000000e+00,0.000000000000000000e+00,8.624279549088373353e-02,0.000000000000000000e+00,0.000000000000000000e+00,2.682717851808253329e+01,2.496937306024109571e+00,-2.600727878379118230e-01,0.000000000000000000e+00,0.000000000000000000e+00,0.000000000000000000e+00,1.102690384441980775e+01,-3.676706265819111863e+00
3.960156249999987124e-03,0.000000000000000000e+00,0.000000000000000000e+00,8.757792796939703472e-02,0.000000000000000000e+00,0.000000000000000000e+00,2.676582140765626505e+01,2.377858536250888388e+00,-3.133429714425860491e-01,0.000000000000000000e+00,0.000000000000000000e+00,0.000000000000000000e+00,1.116806593035560269e+01,-3.723911441028023184e+00
4.010156249999986822e-03,0.000000000000000000e+00,0.000000000000000000e+00,8.891391387808030011e-02,0.000000000000000000e+00,0.000000000000000000e+00,2.663593228109077060e+01,2.315304957422238630e+00,-3.558765538182684929e-01,0.000000000000000000e+00,0.000000000000000000e+00,0.000000000000000000e+00,1.130915692141507023e+01,-3.770756800328257885e+00
4.060156249999986519e-03,0.000000000000000000e+00,0.000000000000000000e+00,9.023650924399298501e-02,0.000000000000000000e+00,0.000000000000000000e+00,2.616497958512650968e+01,2.320186213685325072e+00,-3.830455856682646876e-01,0.000000000000000000e+00,0.000000000000000000e+00,0.000000000000000000e+00,1.145019798234831399e+01,-3.817565424677681118e+00
4.110156249999986217e-03,0.000000000000000000e+00,0.000000000000000000e+00,9.152353370013430189e-02,0.000000000000000000e+00,0.000000000000000000e+00,2.516580568616511115e+01,2.381653244710277839e+00,-3.922259524534536523e-01,0.000000000000000000e+00,0.000000000000000000e+00,0.000000000000000000e+00,1.159120480182694735e+01,-3.864484316779773554e+00
4.160156249999985914e-03,0.000000000000000000e+00,0.000000000000000000e+00,9.275288864772143760e-02,0.000000000000000000e+00,0.000000000000000000e+00,2.409934830481597956e+01,2.461462731652941827e+00,-3.725322008177791577e-01,0.000000000000000000e+00,0.000000000000000000e+00,0.000000000000000000e+00,1.173108501701715767e+01,-3.911402621210683161e+00
4.210156249999985612e-03,0.000000000000000000e+00,0.000000000000000000e+00,9.392084489026501781e-02,0.000000000000000000e+00,0.000000000000000000e+00,2.255503789324685116e+01,2.547752929471326588e+00,-3.345183645693231567e-01,0.000000000000000000e+00,0.000000000000000000e+00,0.000000000000000000e+00,1.187318373613880418e+01,-3.958468249620085366e+00
4.253906249999986865e-03,0.000000000000000000e+00,0.000000000000000000e+00,9.488043421955812129e-02,0.000000000000000000e+00,0.000000000000000000e+00,2.130882568903837182e+01,2.602353115326727639e+00,-2.862019028608484561e-01,0.000000000000000000e+00,0.000000000000000000e+00,0.000000000000000000e+00,1.199545059037481565e+01,-3.999511705313483656e+00
4.303906249999988297e-03,0.000000000000000000e+00,0.000000000000000000e+00,9.587890372419430318e-02,0.000000000000000000e+00,0.000000000000000000e+00,1.927028966942065225e+01,2.656432077299911487e+00,-2.297663102891033260e-01,0.000000000000000000e+00,0.000000000000000000e+00,0.000000000000000000e+00,1.213661289928230858e+01,-4.046478280616717882e+00
4.353906249999989729e-03,0.000000000000000000e+00,0.000000000000000000e+00,9.679392323153150623e-02,0.000000000000000000e+00,0.000000000000000000e+00,1.738807158157781529e+01,2.698990430389816009e+00,-1.706461577893928494e-01,0.000000000000000000e+00,0.000000000000000000e+00,0.000000000000000000e+00,1.227773861619706608e+01,-4.093378158422560809e+00
4.403906249999991161e-03,0.000000000000000000e+00,0.000000000000000000e+00,9.762439168517120236e-02,0.000000000000000000e+00,0.000000000000000000e+00,1.595148910703641221e+01,2.687731116111217400e+00,-1.163423659924095882e-01,0.000000000000000000e+00,0.000000000000000000e+00,0.000000000000000000e+00,1.241882549426423665e+01,-4.140266438263080495e+00
4.453906249999990859e-03,0.000000000000000000e+00,0.000000000000000000e+00,9.838465119452619034e-02,0.000000000000000000e+00,0.000000000000000000e+00,1.417753359548301795e+01,2.650119771208464758e+00,-9.680112708066614113e-02,0.000000000000000000e+00,0.000000000000000000e+00,0.000000000000000000e+00,1.255988733939889990e+01,-4.187209454602009551e+00
4.503906249999990556e-03,0.000000000000000000e+00,0.000000000000000000e+00,9.906959052194941329e-02,0.000000000000000000e+00,0.000000000000000000e+00,1.323031589420311427e+01,2.639117960619420167e+00,-6.445905369358631565e-02,0.000000000000000000e+00,0.000000000000000000e+00,0.000000000000000000e+00,1.270093254710199027e+01,-4.234170331011629429e+00
4.553906249999990254e-03,0.000000000000000000e+00,0.000000000000000000e+00,9.972230379889192309e-02,0.000000000000000000e+00,0.000000000000000000e+00,1.292160052032801865e+01,2.615202268313799205e+00,-3.552137133803556779e-02,0.000000000000000000e+00,0.000000000000000000e+00,0.000000000000000000e+00,1.284196520698838739e+01,-4.281136358069133507e+00
4.603906249999989951e-03,0.000000000000000000e+00,0.000000000000000000e+00,1.003714875779000149e-01,0.000000000000000000e+00,0.000000000000000000e+00,1.300896546867205217e+01,2.571344311710521691e+00,-3.577072935816649757e-02,0.000000000000000000e+00,0.000000000000000000e+00,0.000000000000000000e+00,1.298298845522925760e+01,-4.328109430620233233e+00
4.653906249999989649e-03,0.000000000000000000e+00,0.000000000000000000e+00,1.010320415550473028e-01,0.000000000000000000e+00,0.000000000000000000e+00,1.345305965768538670e+01,2.555168265229645463e+00,-5.479393021450739559e-03,0.000000000000000000e+00,0.000000000000000000e+00,0.000000000000000000e+00,1.312400468922925079e+01,-4.375077630242088844e+00
4.703906249999989346e-03,0.000000000000000000e+00,0.000000000000000000e+00,1.017272909946064369e-01,0.000000000000000000e+00,0.000000000000000000e+00,1.435295195591120176e+01,2.549547960865052865e+00,1.956934812633651447e-02,0.000000000000000000e+00,0.000000000000000000e+00,0.000000000000000000e+00,1.326501446372606274e+01,-4.422050457220181308e+00
4.753906249999989043e-03,0.000000000000000000e+00,0.000000000000000000e+00,1.024743270054884331e-01,0.000000000000000000e+00,0.000000000000000000e+00,1.553004649378552671e+01,2.557021496577936315e+00,3.169340027772786506e-02,0.000000000000000000e+00,0.000000000000000000e+00,0.000000000000000000e+00,1.340602657326683023e+01,-4.469039682106766165e+00
4.803906249999988741e-03,0.000000000000000000e+00,0.000000000000000000e+00,1.032831786211278191e-01,0.000000000000000000e+00,0.000000000000000000e+00,1.682233386849754808e+01,2.576380843473516702e+00,3.123702872768937405e-02,0.000000000000000000e+00,0.000000000000000000e+00,0.000000000000000000e+00,1.354699685875078252e+01,-4.516039259079025037e+00
4.853906249999988438e-03,0.000000000000000000e+00,0.000000000000000000e+00,1.041525073463871465e-01,0.000000000000000000e+00,0.000000000000000000e+00,1.795281425674168574e+01,2.601554366017061692e+00,1.590500488906970017e-02,0.000000000000000000e+00,0.000000000000000000e+00,0.000000000000000000e+00,1.368804053615195748e+01,-4.563151728734018420e+00
4.903906249999988136e-03,0.000000000000000000e+00,0.000000000000000000e+00,1.050625880826591418e-01,0.000000000000000000e+00,0.000000000000000000e+00,1.845198192742899579e+01,2.637790348795097106e+00,-1.531877507632901925e-02,0.000000000000000000e+00,0.000000000000000000e+00,0.000000000000000000e+00,1.382898598558802128e+01,-4.610498603587672051e+00
4.953906249999987833e-03,0.000000000000000000e+00,0.000000000000000000e+00,1.060264077351036061e-01,0.000000000000000000e+00,0.000000000000000000e+00,2.009419560828978746e+01,2.677361222882780112e+00,-4.112983705048342542e-02,0.000000000000000000e+00,0.000000000000000000e+00,0.000000000000000000e+00,1.397004879790795506e+01,-4.657341232474998094e+00
5.003906249999987531e-03,0.000000000000000000e+00,0.000000000000000000e+00,1.070420771943607630e-01,0.000000000000000000e+00,0.000000000000000000e+00,2.054309860942585786e+01,2.697634923810321883e+00,-6.509970370760846670e-02,0.000000000000000000e+00,0.000000000000000000e+00,0.000000000000000000e+00,1.411097992168860316e+01,-4.703979078801712177e+00
5.053906249999987228e-03,0.000000000000000000e+00,0.000000000000000000e+00,1.080947881123241749e-01,0.000000000000000000e+00,0.000000000000000000e+00,2.155499646478670783e+01,2.714124154717295845e+00,-8.824250848230194566e-02,0.000000000000000000e+00,0.000000000000000000e+00,0.000000000000000000e+00,1.425205302090447468e+01,-4.751009862500269243e+00
5.103906249999986926e-03,0.000000000000000000e+00,0.000000000000000000e+00,1.091801102400952461e-01,0.000000000000000000e+00,0.000000000000000000e+00,2.186875024420470481e+01,2.728472939816772413e+00,-1.001845819074382443e-01,0.000000000000000000e+00,0.000000000000000000e+00,0.000000000000000000e+00,1.439297723205351787e+01,-4.798132074962209614e+00
5.153906249999986623e-03,0.000000000000000000e+00,0.000000000000000000e+00,1.102840014227474963e-01,0.000000000000000000e+00,0.000000000000000000e+00,2.227853822399524830e+01,2.736137017076502254e+00,-1.112826325509629205e-01,0.000000000000000000e+00,0.000000000000000000e+00,0.000000000000000000e+00,1.453405444162033433e+01,-4.845226440428794135e+00
5.203906249999986321e-03,0.000000000000000000e+00,0.000000000000000000e+00,1.113974066340428365e-01,0.000000000000000000e+00,0.000000000000000000e+00,2.226577117703445907e+01,2.742273861636058463e+00,-1.180729103397848562e-01,0.000000000000000000e+00,0.000000000000000000e+00,0.000000000000000000e+00,1.467497685336981483e+01,-4.892224812155287594e+00
5.253906249999986018e-03,0.000000000000000000e+00,0.000000000000000000e+00,1.125163346746022169e-01,0.000000000000000000e+00,0.000000000000000000e+00,2.244522249892662913e+01,2.770607425416169889e+00,-1.264459487705745788e-01,0.000000000000000000e+00,0.000000000000000000e+00,0.000000000000000000e+00,1.481623902092798950e+01,-4.939508006527437267e+00
5.303906249999985716e-03,0.000000000000000000e+00,0.000000000000000000e+00,1.136214626177557419e-01,0.000000000000000000e+00,0.000000000000000000e+00,2.196377604686511376e+01,2.768463889924231314e+00,-8.621542407703623734e-02,0.000000000000000000e+00,0.000000000000000000e+00,0.000000000000000000e+00,1.495740296446974504e+01,-4.986592314704074269e+00
5.353906249999985413e-03,0.000000000000000000e+00,0.000000000000000000e+00,1.147045399941946653e-01,0.000000000000000000e+00,0.000000000000000000e+00,2.158151867167290661e+01,2.843769204532684558e+00,3.120066466199420893e-02,0.000000000000000000e+00,0.000000000000000000e+00,0.000000000000000000e+00,1.509849654487286230e+01,-5.033389002837608928e+00
5.403906249999985111e-03,0.000000000000000000e+00,0.000000000000000000e+00,1.157695579551287629e-01,0.000000000000000000e+00,0.000000000000000000e+00,2.111836789838536177e+01,2.896672463215658411e+00,6.107626885005471712e-02,0.000000000000000000e+00,0.000000000000000000e+00,0.000000000000000000e+00,1.523954058176784976e+01,-5.080218765831140182e+00
5.453906249999984808e-03,0.000000000000000000e+00,0.000000000000000000e+00,1.168059034152067327e-01,0.000000000000000000e+00,0.000000000000000000e+00,2.044251493454516933e+01,2.914116228669407782e+00,5.709827064796672846e-02,0.000000000000000000e+00,0.000000000000000000e+00,0.000000000000000000e+00,1.538055052343566587e+01,-5.127216654943183016e+00
5.503906249999984505e-03,0.000000000000000000e+00,0.000000000000000000e+00,1.178084597579538428e-01,0.000000000000000000e+00,0.000000000000000000e+00,1.974037400168455036e+01,2.900147281387975617e+00,2.420270526439502121e-02,0.000000000000000000e+00,0.000000000000000000e+00,0.000000000000000000e+00,1.552048631665078915e+01,-5.174221797205977857e+00
5.553906249999984203e-03,0.000000000000000000e+00,0.000000000000000000e+00,1.187782701281292486e-01,0.000000000000000000e+00,0.000000000000000000e+00,1.899361050942229312e+01,2.886695879869290327e+00,-7.367035851668984892e-02,0.000000000000000000e+00,0.000000000000000000e+00,0.000000000000000000e+00,1.566253511229495921e+01,-5.221357806651598210e+00
5.603906249999983900e-03,0.000000000000000000e+00,0.000000000000000000e+00,1.196605874776847100e-01,0.000000000000000000e+00,0.000000000000000000e+00,1.635065094195113033e+01,3.074866556808979468e+00,-3.929545087847554075e-01,0.000000000000000000e+00,0.000000000000000000e+00,0.000000000000000000e+00,1.580250928763114793e+01,-5.268411377819764319e+00
5.653906249999983598e-03,0.000000000000000000e+00,0.000000000000000000e+00,1.203964452831586956e-01,0.000000000000000000e+00,0.000000000000000000e+00,1.304930782360783148e+01,2.927914173406298115e+00,-4.033925312540333485e-01,0.000000000000000000e+00,0.000000000000000000e+00,0.000000000000000000e+00,1.594450624755450008e+01,-5.315667454972494710e+00
5.703906249999983295e-03,0.000000000000000000e+00,0.000000000000000000e+00,1.209841489119956037e-01,0.000000000000000000e+00,0.000000000000000000e+00,1.048031757887939364e+01,2.753025630011505243e+00,-3.065835156652885751e-01,0.000000000000000000e+00,0.000000000000000000e+00,0.000000000000000000e+00,1.608454263767040260e+01,-5.362718915792264340e+00
5.753906249999982993e-03,0.000000000000000000e+00,0.000000000000000000e+00,1.215043494210193697e-01,0.000000000000000000e+00,0.000000000000000000e+00,1.030064862351135702e+01,2.598170240900110617e+00,-1.897046283299738678e-01,0.000000000000000000e+00,0.000000000000000000e+00,0.000000000000000000e+00,1.622646959792368548e+01,-5.409504535361834954e+00
5.803906249999982690e-03,0.000000000000000000e+00,0.000000000000000000e+00,1.220231799921607657e-01,0.000000000000000000e+00,0.000000000000000000e+00,1.047057725808322282e+01,2.525446682154818490e+00,-1.114539449543631294e-01,0.000000000000000000e+00,0.000000000000000000e+00,0.000000000000000000e+00,1.636658159347357255e+01,-5.456183842857147859e+00
5.853906249999982388e-03,0.000000000000000000e+00,0.000000000000000000e+00,1.225755011891507124e-01,0.000000000000000000e+00,0.000000000000000000e+00,1.160456478250768875e+01,2.471778843855886976e+00,-5.214424398285540108e-02,0.000000000000000000e+00,0.000000000000000000e+00,0.000000000000000000e+00,1.650842916367879454e+01,-5.503035093900038532e+00
5.903906249999982085e-03,0.000000000000000000e+00,0.000000000000000000e+00,1.231906171556818308e-01,0.000000000000000000e+00,0.000000000000000000e+00,1.301164419281919038e+01,2.458528280625866369e+00,-3.721024360605470344e-02,0.000000000000000000e+00,0.000000000000000000e+00,0.000000000000000000e+00,1.664862282091426593e+01,-5.550008947718288788e+00
5.953906249999981783e-03,0.000000000000000000e+00,0.000000000000000000e+00,1.238855856909484854e-01,0.000000000000000000e+00,0.000000000000000000e+00,1.477696835425029853e+01,2.461050128650079660e+00,-4.507852840016120938e-02,0.000000000000000000e+00,0.000000000000000000e+00,0.000000000000000000e+00,1.679038770602391750e+01,-5.597046610615671547e+00
6.003906249999981480e-03,0.000000000000000000e+00,0.000000000000000000e+00,1.246785770878202915e-01,0.000000000000000000e+00,0.000000000000000000e+00,1.735325677091487506e+01,2.549240096122463939e+00,-8.522289726225233675e-02,0.000000000000000000e+00,0.000000000000000000e+00,0.000000000000000000e+00,1.693136385500841357e+01,-5.644057517962307813e+00
6.053906249999981178e-03,0.000000000000000000e+00,0.000000000000000000e+00,1.255321272928121845e-01,0.000000000000000000e+00,0.000000000000000000e+00,1.694804001788827819e+01,2.579088195670076189e+00,-1.061303799724944569e-01,0.000000000000000000e+00,0.000000000000000000e+00,0.000000000000000000e+00,1.707233563525290165e+01,-5.691083326295322209e+00
6.103906249999980875e-03,0.000000000000000000e+00,0.000000000000000000e+00,1.264105852975049848e-01,0.000000000000000000e+00,0.000000000000000000e+00,1.815035947021482698e+01,2.533249869646629460e+00,-1.384432613172542903e-01,0.000000000000000000e+00,0.000000000000000000e+00,0.000000000000000000e+00,1.721330556790114841e+01,-5.738225735051566190e+00
6.153906249999980572e-03,0.000000000000000000e+00,0.000000000000000000e+00,1.273611323052827038e-01,0.000000000000000000e+00,0.000000000000000000e+00,1.979294428143238349e+01,2.535351676274887556e+00,-1.741510061010920485e-01,0.000000000000000000e+00,0.000000000000000000e+00,0.000000000000000000e+00,1.735427537377260876e+01,-5.785225956541638404e+00
6.203906249999980270e-03,0.000000000000000000e+00,0.000000000000000000e+00,1.283906643156100258e-01,0.000000000000000000e+00,0.000000000000000000e+00,2.133543860659944968e+01,2.662811111195214409e+00,-1.677398314695327797e-01,0.000000000000000000e+00,0.000000000000000000e+00,0.000000000000000000e+00,1.749524618647448904e+01,-5.832112757568296502e+00
6.253906249999979967e-03,0.000000000000000000e+00,0.000000000000000000e+00,1.294854857567092343e-01,0.000000000000000000e+00,0.000000000000000000e+00,2.245524168748384142e+01,2.653743240184389229e+00,-1.918600057869867259e-01,0.000000000000000000e+00,0.000000000000000000e+00,0.000000000000000000e+00,1.763581187454078503e+01,-5.879084966132982260e+00
6.303906249999979665e-03,0.000000000000000000e+00,0.000000000000000000e+00,1.306279235249665216e-01,0.000000000000000000e+00,0.000000000000000000e+00,2.324542967570407015e+01,2.775349870302478816e+00,-1.879592647906730141e-01,0.000000000000000000e+00,0.000000000000000000e+00,0.000000000000000000e+00,1.777719562103168371e+01,-5.926121363155910871e+00
6.353906249999979362e-03,0.000000000000000000e+00,0.000000000000000000e+00,1.317980021904743004e-01,0.000000000000000000e+00,0.000000000000000000e+00,2.355770496612791121e+01,2.754296442469412298e+00,-1.833468514712439379e-01,0.000000000000000000e+00,0.000000000000000000e+00,0.000000000000000000e+00,1.791785667001424898e+01,-5.973176489927186417e+00
6.403906249999979060e-03,0.000000000000000000e+00,0.000000000000000000e+00,1.329739473932197991e-01,0.000000000000000000e+00,0.000000000000000000e+00,2.348196837151076011e+01,2.816750656440979661e+00,-1.830310064642589885e-01,0.000000000000000000e+00,0.000000000000000000e+00,0.000000000000000000e+00,1.805915594718801742e+01,-6.020238270929339386e+00
6.453906249999980492e-03,0.000000000000000000e+00,0.000000000000000000e+00,1.341049902467539023e-01,0.000000000000000000e+00,0.000000000000000000e+00,2.241063181540622296e+01,2.857040584651769244e+00,-2.155320583724112671e-01,0.000000000000000000e+00,0.000000000000000000e+00,0.000000000000000000e+00,1.820013504848643393e+01,-6.070562961396436918e+00
6.503906249999981924e-03,0.000000000000000000e+00,0.000000000000000000e+00,1.352180115939359273e-01,0.000000000000000000e+00,0.000000000000000000e+00,2.185467958664542110e+01,2.850448090968409343e+00,-9.426888432705632370e-02,0.000000000000000000e+00,0.000000000000000000e+00,0.000000000000000000e+00,1.834111192839473503e+01,-6.119406761699202058e+00
6.553906249999982489e-03,0.000000000000000000e+00,0.000000000000000000e+00,1.362892627626818287e-01,0.000000000000000000e+00,0.000000000000000000e+00,2.108626850329707025e+01,2.787319125406901854e+00,-6.749982562412382148e-02,0.000000000000000000e+00,0.000000000000000000e+00,0.000000000000000000e+00,1.848194043569166567e+01,-6.164143067597184888e+00
6.603906249999982186e-03,0.000000000000000000e+00,0.000000000000000000e+00,1.373383032083433097e-01,0.000000000000000000e+00,0.000000000000000000e+00,2.091046544272438723e+01,2.744339085364912556e+00,-1.011739054460607107e-01,0.000000000000000000e+00,0.000000000000000000e+00,0.000000000000000000e+00,1.862295724644865302e+01,-6.208606613207147795e+00
6.653906249999981884e-03,0.000000000000000000e+00,0.000000000000000000e+00,1.383879374834963150e-01,0.000000000000000000e+00,0.000000000000000000e+00,2.097803487104906850e+01,2.723294357730172699e+00,-1.400468728889065206e-01,0.000000000000000000e+00,0.000000000000000000e+00,0.000000000000000000e+00,1.876397038345362844e+01,-6.254701197087036313e+00
6.703906249999981581e-03,0.000000000000000000e+00,0.000000000000000000e+00,1.394153155259583166e-01,0.000000000000000000e+00,0.000000000000000000e+00,2.001705455120438870e+01,2.722932857685981478e+00,-1.852455396950717093e-01,0.000000000000000000e+00,0.000000000000000000e+00,0.000000000000000000e+00,1.890498063586218791e+01,-6.302000564662016302e+00
6.753906249999981279e-03,0.000000000000000000e+00,0.000000000000000000e+00,1.404020012580303456e-01,0.000000000000000000e+00,0.000000000000000000e+00,1.938450112153801896e+01,2.710501934649755640e+00,-1.950352089926481458e-01,0.000000000000000000e+00,0.000000000000000000e+00,0.000000000000000000e+00,1.904598862557593364e+01,-6.349459103572286267e+00
6.803906249999980976e-03,0.000000000000000000e+00,0.000000000000000000e+00,1.413619887329921887e-01,0.000000000000000000e+00,0.000000000000000000e+00,1.896259379427876368e+01,2.688127508241620500e+00,-1.824345382418465222e-01,0.000000000000000000e+00,0.000000000000000000e+00,0.000000000000000000e+00,1.918699484230486618e+01,-6.396596562161375843e+00
6.853906249999980674e-03,0.000000000000000000e+00,0.000000000000000000e+00,1.423144674383526320e-01,0.000000000000000000e+00,0.000000000000000000e+00,1.907517351123315663e+01,2.831259989893711637e+00,-7.079099287246737315e-02,0.000000000000000000e+00,0.000000000000000000e+00,0.000000000000000000e+00,1.932799967135588659e+01,-6.443493323724889699e+00
6.903906249999980371e-03,0.000000000000000000e+00,0.000000000000000000e+00,1.432428845387471450e-01,0.000000000000000000e+00,0.000000000000000000e+00,1.806398883209780948e+01,2.785848898686011488e+00,-7.639440043996710561e-02,0.000000000000000000e+00,0.000000000000000000e+00,0.000000000000000000e+00,1.946902767537777379e+01,-6.490394798235806562e+00
6.953906249999980069e-03,0.000000000000000000e+00,0.000000000000000000e+00,1.441228835938693775e-01,0.000000000000000000e+00,0.000000000000000000e+00,1.713378349180500493e+01,2.699280582508303272e+00,-8.388753155963549202e-02,0.000000000000000000e+00,0.000000000000000000e+00,0.000000000000000000e+00,1.961000685677060318e+01,-6.537350794866372716e+00
7.003906249999979766e-03,0.000000000000000000e+00,0.000000000000000000e+00,1.449208854665282320e-01,0.000000000000000000e+00,0.000000000000000000e+00,1.479462545572566157e+01,2.611762420876779789e+00,-9.703659063502789728e-02,0.000000000000000000e+00,0.000000000000000000e+00,0.000000000000000000e+00,1.975102164700569318e+01,-6.584292565168235356e+00
7.053906249999979464e-03,0.000000000000000000e+00,0.000000000000000000e+00,1.456387682491555313e-01,0.000000000000000000e+00,0.000000000000000000e+00,1.390767636037321431e+01,2.540850147676570359e+00,-7.333381042245291914e-02,0.000000000000000000e+00,0.000000000000000000e+00,0.000000000000000000e+00,1.989201188765530048e+01,-6.631198814429538402e+00
7.103906249999979161e-03,0.000000000000000000e+00,0.000000000000000000e+00,1.462593604467898045e-01,0.000000000000000000e+00,0.000000000000000000e+00,1.093545039284090947e+01,2.500085675301182420e+00,-6.489928188494820116e-02,0.000000000000000000e+00,0.000000000000000000e+00,0.000000000000000000e+00,2.003301747439514457e+01,-6.678116038956569689e+00
7.153906249999978859e-03,0.000000000000000000e+00,0.000000000000000000e+00,1.468324100986148351e-01,0.000000000000000000e+00,0.000000000000000000e+00,1.195330703193528343e+01,2.482304481944050956e+00,-7.440420921664589460e-02,0.000000000000000000e+00,0.000000000000000000e+00,0.000000000000000000e+00,2.017401532333735403e+01,-6.725084147411597435e+00
7.203906249999978556e-03,0.000000000000000000e+00,0.000000000000000000e+00,1.474165678420108483e-01,0.000000000000000000e+00,0.000000000000000000e+00,1.144447373008135216e+01,2.468370973486657238e+00,-8.436348421835139499e-02,0.000000000000000000e+00,0.000000000000000000e+00,0.000000000000000000e+00,2.031501466998255268e+01,-6.772096574473183139e+00
7.253906249999978254e-03,0.000000000000000000e+00,0.000000000000000000e+00,1.480494199405136824e-01,0.000000000000000000e+00,0.000000000000000000e+00,1.383285989688609874e+01,2.468505677750043592e+00,-1.064257724130318883e-01,0.000000000000000000e+00,0.000000000000000000e+00,0.000000000000000000e+00,2.045601758837709738e+01,-6.819110521470063802e+00
7.303906249999977951e-03,0.000000000000000000e+00,0.000000000000000000e+00,1.487637227566056541e-01,0.000000000000000000e+00,0.000000000000000000e+00,1.477291008448389142e+01,2.493042687868368468e+00,-1.331124166868760395e-01,0.000000000000000000e+00,0.000000000000000000e+00,0.000000000000000000e+00,2.059701286448362723e+01,-6.866108651683631159e+00
7.353906249999977648e-03,0.000000000000000000e+00,0.000000000000000000e+00,1.495524833771922912e-01,0.000000000000000000e+00,0.000000000000000000e+00,1.674808393042807708e+01,2.676143825511662300e+00,-2.568832062556722362e-01,0.000000000000000000e+00,0.000000000000000000e+00,0.000000000000000000e+00,2.073801900359262262e+01,-6.913196449202382077e+00
7.453906249999977911e-03,0.000000000000000000e+00,0.000000000000000000e+00,1.512612506935592238e-01,0.000000000000000000e+00,0.000000000000000000e+00,1.745473610300201628e+01,2.704345581054749648e+00,-2.540301817095488857e-01,0.000000000000000000e+00,0.000000000000000000e+00,0.000000000000000000e+00,2.102001129580215988e+01,-7.007395387111749585e+00
7.553906249999978173e-03,0.000000000000000000e+00,0.000000000000000000e+00,1.531522007347847214e-01,0.000000000000000000e+00,0.000000000000000000e+00,2.033388910354697643e+01,2.704434169987170566e+00,-2.241904020390936281e-01,0.000000000000000000e+00,0.000000000000000000e+00,0.000000000000000000e+00,2.130202068089624490e+01,-7.101303913499266152e+00
7.653906249999978435e-03,0.000000000000000000e+00,0.000000000000000000e+00,1.552544659193361432e-01,0.000000000000000000e+00,0.000000000000000000e+00,2.174055135627561341e+01,2.697638616901393949e+00,-2.112165861562570746e-01,0.000000000000000000e+00,0.000000000000000000e+00,0.000000000000000000e+00,2.158401003103672267e+01,-7.195164457233801159e+00
7.753906249999978698e-03,0.000000000000000000e+00,0.000000000000000000e+00,1.575044275185760179e-01,0.000000000000000000e+00,0.000000000000000000e+00,2.323706036244507445e+01,2.707416681278912662e+00,-2.365856539779474521e-01,0.000000000000000000e+00,0.000000000000000000e+00,0.000000000000000000e+00,2.186602159885722330e+01,-7.289240421523961011e+00
7.853906249999978093e-03,0.000000000000000000e+00,0.000000000000000000e+00,1.597917255445089890e-01,0.000000000000000000e+00,0.000000000000000000e+00,2.253514277362389606e+01,2.701506977437621249e+00,-2.568731496489236599e-01,0.000000000000000000e+00,0.000000000000000000e+00,0.000000000000000000e+00,2.214800940316655087e+01,-7.383325884427555330e+00
7.953906249999977487e-03,0.000000000000000000e+00,0.000000000000000000e+00,1.620214055092971672e-01,0.000000000000000000e+00,0.000000000000000000e+00,2.203838933555020319e+01,2.712607069749620514e+00,-2.750993064937274912e-01,0.000000000000000000e+00,0.000000000000000000e+00,0.000000000000000000e+00,2.243002198547514681e+01,-7.477317219201225384e+00
8.053906249999976882e-03,0.000000000000000000e+00,0.000000000000000000e+00,1.641441108118356640e-01,0.000000000000000000e+00,0.000000000000000000e+00,2.043560305590483850e+01,2.711193557057991477e+00,-2.665925393388694498e-01,0.000000000000000000e+00,0.000000000000000000e+00,0.000000000000000000e+00,2.271200921582901344e+01,-7.571323360923630119e+00
8.153906249999976277e-03,0.000000000000000000e+00,0.000000000000000000e+00,1.661587059979366121e-01,0.000000000000000000e+00,0.000000000000000000e+00,1.983703301052428358e+01,2.705096792602969646e+00,-2.614036734048355570e-01,0.000000000000000000e+00,0.000000000000000000e+00,0.000000000000000000e+00,2.299402200952191322e+01,-7.665350649489075963e+00
8.203906249999975975e-03,0.000000000000000000e+00,0.000000000000000000e+00,1.670991428049879157e-01,0.000000000000000000e+00,0.000000000000000000e+00,1.941378035130905744e+01,2.723175976476833515e+00,-2.767427733946548063e-01,0.000000000000000000e+00,0.000000000000000000e+00,0.000000000000000000e+00,2.313468527644436534e+01,-7.711218822505556680e+00
8.228906249999976691e-03,0.000000000000000000e+00,0.000000000000000000e+00,1.675457434821776559e-01,0.000000000000000000e+00,0.000000000000000000e+00,1.878710569090046789e+01,2.762213435880842116e+00,-2.949100046939535091e-01,0.000000000000000000e+00,0.000000000000000000e+00,0.000000000000000000e+00,2.320560216475131554e+01,-7.734327161143445650e+00
8.253906249999977407e-03,0.000000000000000000e+00,0.000000000000000000e+00,1.680389928359301843e-01,0.000000000000000000e+00,0.000000000000000000e+00,1.887101948850358824e+01,2.789917221861559771e+00,-2.681043421039195351e-01,0.000000000000000000e+00,0.000000000000000000e+00,0.000000000000000000e+00,2.327612743577972410e+01,-7.759926339783813631e+00
8.303906249999978839e-03,0.000000000000000000e+00,0.000000000000000000e+00,1.689594719210943119e-01,0.000000000000000000e+00,0.000000000000000000e+00,1.798351102644010169e+01,2.761199292466958610e+00,-2.241506827535743318e-01,0.000000000000000000e+00,0.000000000000000000e+00,0.000000000000000000e+00,2.341741350014982359e+01,-7.807542186554050190e+00
8.353906249999980271e-03,0.000000000000000000e+00,0.000000000000000000e+00,1.698636857199217753e-01,0.000000000000000000e+00,0.000000000000000000e+00,1.808544478637115560e+01,2.700795610614184827e+00,-2.001336808612383111e-01,0.000000000000000000e+00,0.000000000000000000e+00,0.000000000000000000e+00,2.355858682368845436e+01,-7.854001313063156076e+00
8.403906249999981704e-03,0.000000000000000000e+00,0.000000000000000000e+00,1.707811333378033425e-01,0.000000000000000000e+00,0.000000000000000000e+00,1.860142561762097202e+01,2.670795633446528594e+00,-2.021977944522304060e-01,0.000000000000000000e+00,0.000000000000000000e+00,0.000000000000000000e+00,2.369967992099128296e+01,-7.900303336207760374e+00
8.453906249999983136e-03,0.000000000000000000e+00,0.000000000000000000e+00,1.717219783152783286e-01,0.000000000000000000e+00,0.000000000000000000e+00,1.916040252123702459e+01,2.673448293235276996e+00,-2.156485009646951778e-01,0.000000000000000000e+00,0.000000000000000000e+00,0.000000000000000000e+00,2.384071702104611390e+01,-7.947047247404802839e+00
8.503906249999982833e-03,0.000000000000000000e+00,0.000000000000000000e+00,1.726817797194050152e-01,0.000000000000000000e+00,0.000000000000000000e+00,1.933416274583715122e+01,2.683435238332755990e+00,-2.316818838259512847e-01,0.000000000000000000e+00,0.000000000000000000e+00,0.000000000000000000e+00,2.398030401651875110e+01,-7.994046958576340067e+00
8.553906249999982531e-03,0.000000000000000000e+00,0.000000000000000000e+00,1.736629610705067439e-01,0.000000000000000000e+00,0.000000000000000000e+00,1.983696486093402100e+01,2.692979649102813067e+00,-2.324415194566124832e-01,0.000000000000000000e+00,0.000000000000000000e+00,0.000000000000000000e+00,2.412272838946797293e+01,-8.041353476554190749e+00
8.603906249999982228e-03,0.000000000000000000e+00,0.000000000000000000e+00,1.746535545146096213e-01,0.000000000000000000e+00,0.000000000000000000e+00,1.984450724862015036e+01,2.681625902932724070e+00,-2.404254352728537047e-01,0.000000000000000000e+00,0.000000000000000000e+00,0.000000000000000000e+00,2.426230905182670128e+01,-8.088347914734658417e+00
8.653906249999981926e-03,0.000000000000000000e+00,0.000000000000000000e+00,1.756598507002959941e-01,0.000000000000000000e+00,0.000000000000000000e+00,2.036290726907534676e+01,2.682519609727610277e+00,-2.653019539344187439e-01,0.000000000000000000e+00,0.000000000000000000e+00,0.000000000000000000e+00,2.440471011749212948e+01,-8.135359294485189352e+00
8.703906249999983358e-03,0.000000000000000000e+00,0.000000000000000000e+00,1.766751281428007581e-01,0.000000000000000000e+00,0.000000000000000000e+00,2.073096172249740121e+01,2.694765604235299872e+00,-2.813069278640096260e-01,0.000000000000000000e+00,0.000000000000000000e+00,0.000000000000000000e+00,2.454598965103866703e+01,-8.182491650901503988e+00
8.753906249999984790e-03,0.000000000000000000e+00,0.000000000000000000e+00,1.776988039791216889e-01,0.000000000000000000e+00,0.000000000000000000e+00,2.090082327112574845e+01,2.700356275649997251e+00,-2.832953175109065858e-01,0.000000000000000000e+00,0.000000000000000000e+00,0.000000000000000000e+00,2.468713789065992259e+01,-8.229607777577573557e+00
8.803906249999986222e-03,0.000000000000000000e+00,0.000000000000000000e+00,1.787273325283331438e-01,0.000000000000000000e+00,0.000000000000000000e+00,2.104144028164417435e+01,2.692020635349176239e+00,-2.909848530378729703e-01,0.000000000000000000e+00,0.000000000000000000e+00,0.000000000000000000e+00,2.482819463688313633e+01,-8.276519719393034435e+00
8.853906249999987654e-03,0.000000000000000000e+00,0.000000000000000000e+00,1.797597932140483634e-01,0.000000000000000000e+00,0.000000000000000000e+00,2.113697650302779962e+01,2.687902120071972156e+00,-2.990219997513171024e-01,0.000000000000000000e+00,0.000000000000000000e+00,0.000000000000000000e+00,2.496918930575352391e+01,-8.323361985627647286e+00
8.903906249999989087e-03,0.000000000000000000e+00,0.000000000000000000e+00,1.807944963878582445e-01,0.000000000000000000e+00,0.000000000000000000e+00,2.117092396264575171e+01,2.688615656904297158e+00,-3.051528279837764646e-01,0.000000000000000000e+00,0.000000000000000000e+00,0.000000000000000000e+00,2.511014343812360750e+01,-8.370274222297888755e+00
8.953906249999988784e-03,0.000000000000000000e+00,0.000000000000000000e+00,1.818284792510137526e-01,0.000000000000000000e+00,0.000000000000000000e+00,2.028517965684212143e+01,2.681955882928796608e+00,-3.122441671528675133e-01,0.000000000000000000e+00,0.000000000000000000e+00,0.000000000000000000e+00,2.524894831689267960e+01,-8.417211026574538124e+00
9.003906249999988481e-03,0.000000000000000000e+00,0.000000000000000000e+00,1.828657045553281346e-01,0.000000000000000000e+00,0.000000000000000000e+00,2.112518328077406338e+01,2.691431910305865038e+00,-3.194616848171737411e-01,0.000000000000000000e+00,0.000000000000000000e+00,0.000000000000000000e+00,2.539202325096227852e+01,-8.464480590728140186e+00
9.053906249999988179e-03,0.000000000000000000e+00,0.000000000000000000e+00,1.838956426461167692e-01,0.000000000000000000e+00,0.000000000000000000e+00,2.013828097109349713e+01,2.683933982582713540e+00,-3.077109041707629111e-01,0.000000000000000000e+00,0.000000000000000000e+00,0.000000000000000000e+00,2.553106641783456610e+01,-8.511683172530593922e+00
9.103906249999987876e-03,0.000000000000000000e+00,0.000000000000000000e+00,1.849123096787388121e-01,0.000000000000000000e+00,0.000000000000000000e+00,2.047411463873419635e+01,2.681238782061589276e+00,-3.132739968209548587e-01,0.000000000000000000e+00,0.000000000000000000e+00,0.000000000000000000e+00,2.567390802086751123e+01,-8.558425684956842971e+00
9.153906249999987574e-03,0.000000000000000000e+00,0.000000000000000000e+00,1.859161550658971485e-01,0.000000000000000000e+00,0.000000000000000000e+00,1.972437548144181108e+01,2.682674588304639229e+00,-3.119777644211692569e-01,0.000000000000000000e+00,0.000000000000000000e+00,0.000000000000000000e+00,2.581317817024116579e+01,-8.605124413024114460e+00
9.203906249999987271e-03,0.000000000000000000e+00,0.000000000000000000e+00,1.869185572091109915e-01,0.000000000000000000e+00,0.000000000000000000e+00,2.033272158869642610e+01,2.702472382835217068e+00,-3.136097713929856257e-01,0.000000000000000000e+00,0.000000000000000000e+00,0.000000000000000000e+00,2.595580020291209067e+01,-8.652184407512988784e+00
9.253906249999986969e-03,0.000000000000000000e+00,0.000000000000000000e+00,1.879172183715373534e-01,0.000000000000000000e+00,0.000000000000000000e+00,1.964826595058051950e+01,2.692277713827025298e+00,-3.044305207445437977e-01,0.000000000000000000e+00,0.000000000000000000e+00,0.000000000000000000e+00,2.609528172311277316e+01,-8.699258499446385073e+00
9.303906249999986666e-03,0.000000000000000000e+00,0.000000000000000000e+00,1.889172740707912856e-01,0.000000000000000000e+00,0.000000000000000000e+00,2.032234111422034673e+01,2.692373427559962007e+00,-3.077667614541055863e-01,0.000000000000000000e+00,0.000000000000000000e+00,0.000000000000000000e+00,2.623770114028858913e+01,-8.746361316990503454e+00
9.353906249999986364e-03,0.000000000000000000e+00,0.000000000000000000e+00,1.899112150578900204e-01,0.000000000000000000e+00,0.000000000000000000e+00,1.946561977697836809e+01,2.683114772816824534e+00,-3.069761639442964429e-01,0.000000000000000000e+00,0.000000000000000000e+00,0.000000000000000000e+00,2.637737615800789115e+01,-8.793326067436515459e+00
9.403906249999986061e-03,0.000000000000000000e+00,0.000000000000000000e+00,1.909042466134370231e-01,0.000000000000000000e+00,0.000000000000000000e+00,2.022585388343958002e+01,2.689209461247584088e+00,-3.207815066523410641e-01,0.000000000000000000e+00,0.000000000000000000e+00,0.000000000000000000e+00,2.651961139820068425e+01,-8.840275661926842332e+00
9.453906249999985759e-03,0.000000000000000000e+00,0.000000000000000000e+00,1.918943933372122268e-01,0.000000000000000000e+00,0.000000000000000000e+00,1.940922427835246822e+01,2.682937883750271535e+00,-3.219591569805483888e-01,0.000000000000000000e+00,0.000000000000000000e+00,0.000000000000000000e+00,2.665946120150099929e+01,-8.887228555282739251e+00
9.503906249999985456e-03,0.000000000000000000e+00,0.000000000000000000e+00,1.928818334307431936e-01,0.000000000000000000e+00,0.000000000000000000e+00,2.006011477322592995e+01,2.686193097554506082e+00,-3.332291827974703802e-01,0.000000000000000000e+00,0.000000000000000000e+00,0.000000000000000000e+00,2.680153101100451352e+01,-8.934241825653298719e+00
9.603906249999984851e-03,0.000000000000000000e+00,0.000000000000000000e+00,1.948518713942922198e-01,0.000000000000000000e+00,0.000000000000000000e+00,1.936762827679712373e+01,2.675240529525343192e+00,-3.389638174289822392e-01,0.000000000000000000e+00,0.000000000000000000e+00,0.000000000000000000e+00,2.708257121052622551e+01,-9.028269068924146268e+00
9.703906249999984246e-03,0.000000000000000000e+00,0.000000000000000000e+00,1.968277274298723123e-01,0.000000000000000000e+00,0.000000000000000000e+00,2.012294060114401262e+01,2.673958696633940146e+00,-3.514062433762946691e-01,0.000000000000000000e+00,0.000000000000000000e+00,0.000000000000000000e+00,2.736539810838831599e+01,-9.122265125991958712e+00
9.803906249999983641e-03,0.000000000000000000e+00,0.000000000000000000e+00,1.988212167138749820e-01,0.000000000000000000e+00,0.000000000000000000e+00,1.977145120540021850e+01,2.668449513961120179e+00,-3.559956427628169218e-01,0.000000000000000000e+00,0.000000000000000000e+00,0.000000000000000000e+00,2.764668713062412664e+01,-9.216247090157160926e+00
9.903906249999983036e-03,0.000000000000000000e+00,0.000000000000000000e+00,2.008430547628150820e-01,0.000000000000000000e+00,0.000000000000000000e+00,2.064156939630548493e+01,2.673992717277692943e+00,-3.701179579863043134e-01,0.000000000000000000e+00,0.000000000000000000e+00,0.000000000000000000e+00,2.792929710333119431e+01,-9.310253324308808587e+00
1.000390624999998243e-02,0.000000000000000000e+00,0.000000000000000000e+00,2.028851365678922269e-01,0.000000000000000000e+00,0.000000000000000000e+00,2.022349603000357376e+01,2.678219897809811734e+00,-3.819907359065914942e-01,0.000000000000000000e+00,0.000000000000000000e+00,0.000000000000000000e+00,2.821077504444715700e+01,-9.404273817200600405e+00
1.010390624999998183e-02,0.000000000000000000e+00,0.000000000000000000e+00,2.049417395105319895e-01,0.000000000000000000e+00,0.000000000000000000e+00,2.088635140601381224e+01,2.677501748837081141e+00,-3.890636686384707499e-01,0.000000000000000000e+00,0.000000000000000000e+00,0.000000000000000000e+00,2.849322067254611568e+01,-9.498276906380153761e+00
1.020390624999998122e-02,0.000000000000000000e+00,0.000000000000000000e+00,2.070069956417101564e-01,0.000000000000000000e+00,0.000000000000000000e+00,2.044023107904770242e+01,2.668016765411370450e+00,-3.984813753141105974e-01,0.000000000000000000e+00,0.000000000000000000e+00,0.000000000000000000e+00,2.877484140966419446e+01,-9.592277542850489169e+00
1.030390624999998062e-02,0.000000000000000000e+00,0.000000000000000000e+00,2.090741380713371234e-01,0.000000000000000000e+00,0.000000000000000000e+00,2.088275843868490966e+01,2.616633078921579703e+00,-4.530898978216780781e-01,0.000000000000000000e+00,0.000000000000000000e+00,0.000000000000000000e+00,2.905716312409125379e+01,-9.686342705689762411e+00
1.035390624999998031e-02,0.000000000000000000e+00,0.000000000000000000e+00,2.100705705729091211e-01,0.000000000000000000e+00,0.000000000000000000e+00,2.068927133608657698e+01,2.655464394045633725e+00,-4.713331904189653754e-01,0.000000000000000000e+00,0.000000000000000000e+00,0.000000000000000000e+00,2.919759472216296814e+01,-9.732190921409852535e+00
1.037890624999998103e-02,0.000000000000000000e+00,0.000000000000000000e+00,2.105604898348784615e-01,0.000000000000000000e+00,0.000000000000000000e+00,2.111970503237157004e+01,2.702090732400266759e+00,-5.055117772309134505e-01,0.000000000000000000e+00,0.000000000000000000e+00,0.000000000000000000e+00,2.926867891839523850e+01,-9.755358866484579394e+00
1.040390624999998175e-02,0.000000000000000000e+00,0.000000000000000000e+00,2.110950037630301701e-01,0.000000000000000000e+00,0.000000000000000000e+00,1.974789753905441358e+01,2.738289751946798578e+00,-4.744535664615280868e-01,0.000000000000000000e+00,0.000000000000000000e+00,0.000000000000000000e+00,2.933906262818929633e+01,-9.781078972894015067e+00
1.045390624999998318e-02,0.000000000000000000e+00,0.000000000000000000e+00,2.121052773040826012e-01,0.000000000000000000e+00,0.000000000000000000e+00,1.884498337987507810e+01,2.730012621399846129e+00,-4.235091526820204400e-01,0.000000000000000000e+00,0.000000000000000000e+00,0.000000000000000000e+00,2.948036792451718924e+01,-9.828695538941838450e+00
1.050390624999998461e-02,0.000000000000000000e+00,0.000000000000000000e+00,2.130925562300253762e-01,0.000000000000000000e+00,0.000000000000000000e+00,1.903172757374779422e+01,2.711866299710057326e+00,-3.612691424105546334e-01,0.000000000000000000e+00,0.000000000000000000e+00,0.000000000000000000e+00,2.962155551142672749e+01,-9.875068356150073612e+00
1.055390624999998604e-02,0.000000000000000000e+00,0.000000000000000000e+00,2.140852079370908212e-01,0.000000000000000000e+00,0.000000000000000000e+00,1.955660172878495828e+01,2.701044557337050289e+00,-3.567135445642564129e-01,0.000000000000000000e+00,0.000000000000000000e+00,0.000000000000000000e+00,2.976265909729921333e+01,-9.921271247836878970e+00
1.060390624999998747e-02,0.000000000000000000e+00,0.000000000000000000e+00,2.150909923708943794e-01,0.000000000000000000e+00,0.000000000000000000e+00,2.001526515044458421e+01,2.717472483370248604e+00,-3.665786124276326219e-01,0.000000000000000000e+00,0.000000000000000000e+00,0.000000000000000000e+00,2.990370383063843818e+01,-9.967999725393557497e+00
1.065390624999998717e-02,0.000000000000000000e+00,0.000000000000000000e+00,2.161018056015115707e-01,0.000000000000000000e+00,0.000000000000000000e+00,2.049327219204428729e+01,2.729212194898670063e+00,-3.706697337603258036e-01,0.000000000000000000e+00,0.000000000000000000e+00,0.000000000000000000e+00,3.004331132569299712e+01,-1.001505919899941688e+01
1.070390624999998687e-02,0.000000000000000000e+00,0.000000000000000000e+00,2.171218375305047632e-01,0.000000000000000000e+00,0.000000000000000000e+00,2.025614801701804524e+01,2.737374071088605199e+00,-3.868383713324154427e-01,0.000000000000000000e+00,0.000000000000000000e+00,0.000000000000000000e+00,3.018572591718468345e+01,-1.006243898637868384e+01
1.075390624999998657e-02,0.000000000000000000e+00,0.000000000000000000e+00,2.181359641016391848e-01,0.000000000000000000e+00,0.000000000000000000e+00,2.034506894985826975e+01,2.718658760664234286e+00,-3.936165215980620413e-01,0.000000000000000000e+00,0.000000000000000000e+00,0.000000000000000000e+00,3.032530758150642924e+01,-1.010946382642037733e+01
1.080390624999998626e-02,0.000000000000000000e+00,0.000000000000000000e+00,2.191539919261272229e-01,0.000000000000000000e+00,0.000000000000000000e+00,2.035015126483157388e+01,2.708111763364525970e+00,-4.142910471885096757e-01,0.000000000000000000e+00,0.000000000000000000e+00,0.000000000000000000e+00,3.046771476661920630e+01,-1.015645260909491299e+01
1.085390624999998596e-02,0.000000000000000000e+00,0.000000000000000000e+00,2.201702481956922530e-01,0.000000000000000000e+00,0.000000000000000000e+00,2.031910349070737354e+01,2.688874842077872085e+00,-4.200190893544787363e-01,0.000000000000000000e+00,0.000000000000000000e+00,0.000000000000000000e+00,3.060733068531368772e+01,-1.020329829080321105e+01
1.090390624999998566e-02,0.000000000000000000e+00,0.000000000000000000e+00,2.211929732335819465e-01,0.000000000000000000e+00,0.000000000000000000e+00,2.057470542395551760e+01,2.688016557747921809e+00,-4.370548312774203414e-01,0.000000000000000000e+00,0.000000000000000000e+00,0.000000000000000000e+00,3.074968221172156291e+01,-1.025028585374546886e+01
1.095390624999998536e-02,0.000000000000000000e+00,0.000000000000000000e+00,2.222175627445839574e-01,0.000000000000000000e+00,0.000000000000000000e+00,2.042187838604005634e+01,2.677971422244703970e+00,-4.392860361505081523e-01,0.000000000000000000e+00,0.000000000000000000e+00,0.000000000000000000e+00,3.088937057004675779e+01,-1.029728254542052923e+01
1.100390624999998505e-02,0.000000000000000000e+00,0.000000000000000000e+00,2.232357710733352540e-01,0.000000000000000000e+00,0.000000000000000000e+00,2.029686468952255751e+01,2.748364416438120017e+00,-5.228697055778399605e-01,0.000000000000000000e+00,0.000000000000000000e+00,0.000000000000000000e+00,3.103163678867158382e+01,-1.034437147053246342e+01
1.105390624999998649e-02,0.000000000000000000e+00,0.000000000000000000e+00,2.241340509668723890e-01,0.000000000000000000e+00,0.000000000000000000e+00,1.560508293666490331e+01,3.189160448754609689e+00,-9.741282149618458730e-01,0.000000000000000000e+00,0.000000000000000000e+00,0.000000000000000000e+00,3.117147542963168760e+01,-1.039134680572551162e+01
1.110390624999998792e-02,0.000000000000000000e+00,0.000000000000000000e+00,2.247857768220540009e-01,0.000000000000000000e+00,0.000000000000000000e+00,1.033584947882728677e+01,3.146172172830880687e+00,-9.231321329117266883e-01,0.000000000000000000e+00,0.000000000000000000e+00,0.000000000000000000e+00,3.131278176701189508e+01,-1.043980231326908381e+01
1.115390624999998935e-02,0.000000000000000000e+00,0.000000000000000000e+00,2.252209565832697102e-01,0.000000000000000000e+00,0.000000000000000000e+00,7.247653299499413393e+00,2.945432040937889351e+00,-7.686787223737330255e-01,0.000000000000000000e+00,0.000000000000000000e+00,0.000000000000000000e+00,3.145394129294190932e+01,-1.048701110463500008e+01
1.120390624999999078e-02,0.000000000000000000e+00,0.000000000000000000e+00,2.255554251356878814e-01,0.000000000000000000e+00,0.000000000000000000e+00,6.332981474046695425e+00,2.729193621072721676e+00,-6.211146801696603159e-01,0.000000000000000000e+00,0.000000000000000000e+00,0.000000000000000000e+00,3.159503219956969389e+01,-1.053322241431356687e+01
1.125390624999999221e-02,0.000000000000000000e+00,0.000000000000000000e+00,2.258891160327290426e-01,0.000000000000000000e+00,0.000000000000000000e+00,7.239610010556319253e+00,2.571184418246779568e+00,-5.136312750420278794e-01,0.000000000000000000e+00,0.000000000000000000e+00,0.000000000000000000e+00,3.173609124506764800e+01,-1.057939049487685423e+01
1.130390624999999365e-02,0.000000000000000000e+00,0.000000000000000000e+00,2.263007899496981279e-01,0.000000000000000000e+00,0.000000000000000000e+00,9.470670685067565486e+00,2.479184638169091848e+00,-4.474475980129433150e-01,0.000000000000000000e+00,0.000000000000000000e+00,0.000000000000000000e+00,3.187712725493400612e+01,-1.062605522962579130e+01
1.135390624999999508e-02,0.000000000000000000e+00,0.000000000000000000e+00,2.268428345405329727e-01,0.000000000000000000e+00,0.000000000000000000e+00,1.245980554398113149e+01,2.442361457559613758e+00,-4.190023740855857159e-01,0.000000000000000000e+00,0.000000000000000000e+00,0.000000000000000000e+00,3.201814685117084025e+01,-1.067314177293052246e+01
1.140390624999999651e-02,0.000000000000000000e+00,0.000000000000000000e+00,2.275433937501174231e-01,0.000000000000000000e+00,0.000000000000000000e+00,1.581550649996843561e+01,2.443511326965251307e+00,-4.186935475029009979e-01,0.000000000000000000e+00,0.000000000000000000e+00,0.000000000000000000e+00,3.215915497099882003e+01,-1.072030027467907409e+01
1.145390624999999621e-02,0.000000000000000000e+00,0.000000000000000000e+00,2.284129418325139549e-01,0.000000000000000000e+00,0.000000000000000000e+00,1.896851710175942074e+01,2.466625486169209847e+00,-4.362630579111007600e-01,0.000000000000000000e+00,0.000000000000000000e+00,0.000000000000000000e+00,3.229987370395262047e+01,-1.076733957049311918e+01
1.150390624999999591e-02,0.000000000000000000e+00,0.000000000000000000e+00,2.294472149729044064e-01,0.000000000000000000e+00,0.000000000000000000e+00,2.239955076480015705e+01,2.515534777075244754e+00,-4.664986554001155916e-01,0.000000000000000000e+00,0.000000000000000000e+00,0.000000000000000000e+00,3.244115821262646904e+01,-1.081430847215416868e+01
1.155390624999999560e-02,0.000000000000000000e+00,0.000000000000000000e+00,2.306281981415733984e-01,0.000000000000000000e+00,0.000000000000000000e+00,2.484656258340125845e+01,2.573595907275327388e+00,-4.951181743712637084e-01,0.000000000000000000e+00,0.000000000000000000e+00,0.000000000000000000e+00,3.258187392332165899e+01,-1.086127664398251547e+01
1.160390624999999530e-02,0.000000000000000000e+00,0.000000000000000000e+00,2.319299178360360314e-01,0.000000000000000000e+00,0.000000000000000000e+00,2.721765274647453126e+01,2.637477098661948904e+00,-5.262546064777258170e-01,0.000000000000000000e+00,0.000000000000000000e+00,0.000000000000000000e+00,3.272315519204240530e+01,-1.090832345131616599e+01
1.165390624999999500e-02,0.000000000000000000e+00,0.000000000000000000e+00,2.333161039010373250e-01,0.000000000000000000e+00,0.000000000000000000e+00,2.823957064047060328e+01,2.694063240320709873e+00,-5.520258712039980420e-01,0.000000000000000000e+00,0.000000000000000000e+00,0.000000000000000000e+00,3.286387918268066954e+01,-1.095542068541808511e+01
1.170390624999999470e-02,0.000000000000000000e+00,0.000000000000000000e+00,2.347487681634937984e-01,0.000000000000000000e+00,0.000000000000000000e+00,2.906084656764036467e+01,2.743700054372638863e+00,-5.773692453471217512e-01,0.000000000000000000e+00,0.000000000000000000e+00,0.000000000000000000e+00,3.300514817186744665e+01,-1.100253422327342712e+01
1.175390624999999439e-02,0.000000000000000000e+00,0.000000000000000000e+00,2.361878126571547998e-01,0.000000000000000000e+00,0.000000000000000000e+00,2.851196408079348643e+01,2.774394977510996174e+00,-5.928358316019564089e-01,0.000000000000000000e+00,0.000000000000000000e+00,0.000000000000000000e+00,3.314588755891472260e+01,-1.104961667490766075e+01
1.180390624999999409e-02,0.000000000000000000e+00,0.000000000000000000e+00,2.375570233142841325e-01,0.000000000000000000e+00,0.000000000000000000e+00,2.625660469145872611e+01,2.761018692034154398e+00,-5.689298536554046049e-01,0.000000000000000000e+00,0.000000000000000000e+00,0.000000000000000000e+00,3.328713878098928802e+01,-1.109661754229355957e+01
1.185390624999999379e-02,0.000000000000000000e+00,0.000000000000000000e+00,2.387107316538131241e-01,0.000000000000000000e+00,0.000000000000000000e+00,1.991119488197017162e+01,2.671378201402401231e+00,-4.748563703666568991e-01,0.000000000000000000e+00,0.000000000000000000e+00,0.000000000000000000e+00,3.342789767774738863e+01,-1.114344435460316696e+01
1.190390624999999349e-02,0.000000000000000000e+00,0.000000000000000000e+00,2.395563982051001350e-01,0.000000000000000000e+00,0.000000000000000000e+00,1.389971234607378747e+01,2.581627677023359269e+00,-4.111795778434014226e-01,0.000000000000000000e+00,0.000000000000000000e+00,0.000000000000000000e+00,3.356912817370432833e+01,-1.119018232504769372e+01
1.200390624999999288e-02,0.000000000000000000e+00,0.000000000000000000e+00,2.406001567404183750e-01,0.000000000000000000e+00,0.000000000000000000e+00,6.991208382253921272e+00,2.494886709758350918e+00,-3.867685955584731494e-01,0.000000000000000000e+00,0.000000000000000000e+00,0.000000000000000000e+00,3.385091351017538130e+01,-1.128407018948474061e+01
1.210390624999999228e-02,0.000000000000000000e+00,0.000000000000000000e+00,2.413574321289615743e-01,0.000000000000000000e+00,0.000000000000000000e+00,8.104463206187974222e+00,2.445088422397386996e+00,-4.016853752818348444e-01,0.000000000000000000e+00,0.000000000000000000e+00,0.000000000000000000e+00,3.413310826723240154e+01,-1.137826590989957509e+01
1.215390624999999197e-02,0.000000000000000000e+00,0.000000000000000000e+00,2.418151646676510169e-01,0.000000000000000000e+00,0.000000000000000000e+00,1.083134788523092595e+01,2.458351860199393890e+00,-4.480223832896554348e-01,0.000000000000000000e+00,0.000000000000000000e+00,0.000000000000000000e+00,3.427358887412137278e+01,-1.142405652662625393e+01
1.220390624999999167e-02,0.000000000000000000e+00,0.000000000000000000e+00,2.424572802629847978e-01,0.000000000000000000e+00,0.000000000000000000e+00,1.439363548037026419e+01,2.514199124525394069e+00,-4.325164388530192139e-01,0.000000000000000000e+00,0.000000000000000000e+00,0.000000000000000000e+00,3.441570873637189720e+01,-1.147312041156869533e+01
1.225390624999999137e-02,0.000000000000000000e+00,0.000000000000000000e+00,2.432459795059997154e-01,0.000000000000000000e+00,0.000000000000000000e+00,1.749084346352815444e+01,2.496626956826488719e+00,-4.501103611466616972e-01,0.000000000000000000e+00,0.000000000000000000e+00,0.000000000000000000e+00,3.455511369274133671e+01,-1.151900147701476484e+01
1.230390624999999107e-02,0.000000000000000000e+00,0.000000000000000000e+00,2.442298172391921263e-01,0.000000000000000000e+00,0.000000000000000000e+00,2.161302769102723431e+01,2.507413351964189907e+00,-5.043781451833279084e-01,0.000000000000000000e+00,0.000000000000000000e+00,0.000000000000000000e+00,3.469807768285644300e+01,-1.156642282594452986e+01
1.235390624999999076e-02,0.000000000000000000e+00,0.000000000000000000e+00,2.453700450231692531e-01,0.000000000000000000e+00,0.000000000000000000e+00,2.418505571838155177e+01,2.554132901734711414e+00,-5.292184627813210085e-01,0.000000000000000000e+00,0.000000000000000000e+00,0.000000000000000000e+00,3.483683448598840471e+01,-1.161255988439879339e+01
1.240390624999999046e-02,0.000000000000000000e+00,0.000000000000000000e+00,2.466652781443246789e-01,0.000000000000000000e+00,0.000000000000000000e+00,2.748335990387749561e+01,2.633151919625769555e+00,-5.824401317664203992e-01,0.000000000000000000e+00,0.000000000000000000e+00,0.000000000000000000e+00,3.498028140835464228e+01,-1.166003394067179144e+01
1.245390624999999016e-02,0.000000000000000000e+00,0.000000000000000000e+00,2.480480503885153509e-01,0.000000000000000000e+00,0.000000000000000000e+00,2.794358860787929899e+01,2.690294984675383638e+00,-5.910625068898551771e-01,0.000000000000000000e+00,0.000000000000000000e+00,0.000000000000000000e+00,3.511869393755965518e+01,-1.170692708008737171e+01
1.247890624999999087e-02,0.000000000000000000e+00,0.000000000000000000e+00,2.487405591280382189e-01,0.000000000000000000e+00,0.000000000000000000e+00,2.981731778222603424e+01,2.731029396810584764e+00,-6.370174384173167281e-01,0.000000000000000000e+00,0.000000000000000000e+00,0.000000000000000000e+00,3.519166977554771591e+01,-1.172978595381948885e+01
1.250390624999999159e-02,0.000000000000000000e+00,0.000000000000000000e+00,2.494874192109224065e-01,0.000000000000000000e+00,0.000000000000000000e+00,2.823152722664938352e+01,2.764096863882708810e+00,-6.131709122588072658e-01,0.000000000000000000e+00,0.000000000000000000e+00,0.000000000000000000e+00,3.526000872084779303e+01,-1.175444567370115223e+01
1.255390624999999302e-02,0.000000000000000000e+00,0.000000000000000000e+00,2.509286356284863850e-01,0.000000000000000000e+00,0.000000000000000000e+00,2.772238247240721520e+01,2.786039490882665781e+00,-6.298970905216483285e-01,0.000000000000000000e+00,0.000000000000000000e+00,0.000000000000000000e+00,3.540125159940438238e+01,-1.180179450629898419e+01
1.260390624999999445e-02,0.000000000000000000e+00,0.000000000000000000e+00,2.523315885738554032e-01,0.000000000000000000e+00,0.000000000000000000e+00,2.670311271923804952e+01,2.767281423155599551e+00,-6.475728226621660921e-01,0.000000000000000000e+00,0.000000000000000000e+00,0.000000000000000000e+00,3.554243853334446612e+01,-1.184869280070422093e+01
1.265390624999999589e-02,0.000000000000000000e+00,0.000000000000000000e+00,2.536711625924401026e-01,0.000000000000000000e+00,0.000000000000000000e+00,2.535857838841284817e+01,2.755491600627694826e+00,-6.590350511116552790e-01,0.000000000000000000e+00,0.000000000000000000e+00,0.000000000000000000e+00,3.568358201371570715e+01,-1.189541562441819167e+01
1.270390624999999732e-02,0.000000000000000000e+00,0.000000000000000000e+00,2.549296320340382338e-01,0.000000000000000000e+00,0.000000000000000000e+00,2.374882917825375728e+01,2.750765355136483681e+00,-6.617107470566624405e-01,0.000000000000000000e+00,0.000000000000000000e+00,0.000000000000000000e+00,3.582469180455358071e+01,-1.194226805159056504e+01
1.275390624999999702e-02,0.000000000000000000e+00,0.000000000000000000e+00,2.560947207318192698e-01,0.000000000000000000e+00,0.000000000000000000e+00,2.291102132296509808e+01,2.745651286698378435e+00,-6.622417649389601424e-01,0.000000000000000000e+00,0.000000000000000000e+00,0.000000000000000000e+00,3.596625163623482990e+01,-1.198922672448483162e+01
1.280390624999999671e-02,0.000000000000000000e+00,0.000000000000000000e+00,2.571758493470130968e-01,0.000000000000000000e+00,0.000000000000000000e+00,2.030165231577321805e+01,2.716730129476772060e+00,-6.514906588241825558e-01,0.000000000000000000e+00,0.000000000000000000e+00,0.000000000000000000e+00,3.610685309933844422e+01,-1.203640693323918143e+01
1.285390624999999641e-02,0.000000000000000000e+00,0.000000000000000000e+00,2.581725185817833612e-01,0.000000000000000000e+00,0.000000000000000000e+00,1.957970161562632327e+01,2.689505342705275748e+00,-6.456766793958276240e-01,0.000000000000000000e+00,0.000000000000000000e+00,0.000000000000000000e+00,3.624811700208933019e+01,-1.208339282237711743e+01
1.290390624999999611e-02,0.000000000000000000e+00,0.000000000000000000e+00,2.591117860650792304e-01,0.000000000000000000e+00,0.000000000000000000e+00,1.798456868301505551e+01,2.652366194111387188e+00,-6.357511131078957822e-01,0.000000000000000000e+00,0.000000000000000000e+00,0.000000000000000000e+00,3.638896479202534806e+01,-1.213038447130400499e+01
1.295390624999999581e-02,0.000000000000000000e+00,0.000000000000000000e+00,2.600087366967999691e-01,0.000000000000000000e+00,0.000000000000000000e+00,1.789094797729039144e+01,2.627498663304125515e+00,-6.297428916898090145e-01,0.000000000000000000e+00,0.000000000000000000e+00,0.000000000000000000e+00,3.653002500891157212e+01,-1.217726523929098192e+01
1.300390624999999550e-02,0.000000000000000000e+00,0.000000000000000000e+00,2.608934599976285851e-01,0.000000000000000000e+00,0.000000000000000000e+00,1.750122525448217914e+01,2.604599639004946177e+00,-6.247632130001992135e-01,0.000000000000000000e+00,0.000000000000000000e+00,0.000000000000000000e+00,3.667103990866620933e+01,-1.222422404458314205e+01
1.305390624999999520e-02,0.000000000000000000e+00,0.000000000000000000e+00,2.617821553636660026e-01,0.000000000000000000e+00,0.000000000000000000e+00,1.803979058203298180e+01,2.593285824172792964e+00,-6.227681506405499112e-01,0.000000000000000000e+00,0.000000000000000000e+00,0.000000000000000000e+00,3.681196431342954156e+01,-1.227117885417500531e+01
1.310390624999999490e-02,0.000000000000000000e+00,0.000000000000000000e+00,2.626979604629599008e-01,0.000000000000000000e+00,0.000000000000000000e+00,1.859726748913733729e+01,2.586257918646297060e+00,-6.249629578708597588e-01,0.000000000000000000e+00,0.000000000000000000e+00,0.000000000000000000e+00,3.695308831605449029e+01,-1.231819069966570801e+01
1.315390624999999460e-02,0.000000000000000000e+00,0.000000000000000000e+00,2.636500002593939462e-01,0.000000000000000000e+00,0.000000000000000000e+00,1.947924149640093816e+01,2.586724470460999736e+00,-6.285514361377886328e-01,0.000000000000000000e+00,0.000000000000000000e+00,0.000000000000000000e+00,3.709392634347235429e+01,-1.236517645486674866e+01
1.320390624999999429e-02,0.000000000000000000e+00,0.000000000000000000e+00,2.646500388525365177e-01,0.000000000000000000e+00,0.000000000000000000e+00,2.052521418069064296e+01,2.592463250700645538e+00,-6.373786517773794014e-01,0.000000000000000000e+00,0.000000000000000000e+00,0.000000000000000000e+00,3.723511745199420631e+01,-1.241217751411038606e+01
1.330390624999999369e-02,0.000000000000000000e+00,0.000000000000000000e+00,2.667863671407932347e-01,0.000000000000000000e+00,0.000000000000000000e+00,2.219624310191854732e+01,2.613962241409040654e+00,-6.558363036247780720e-01,0.000000000000000000e+00,0.000000000000000000e+00,0.000000000000000000e+00,3.751689500175403680e+01,-1.250616359339800709e+01
1.340390624999999308e-02,0.000000000000000000e+00,0.000000000000000000e+00,2.690728552588306233e-01,0.000000000000000000e+00,0.000000000000000000e+00,2.353880612601111011e+01,2.641739850271708434e+00,-6.806150823833524433e-01,0.000000000000000000e+00,0.000000000000000000e+00,0.000000000000000000e+00,3.779915026697707958e+01,-1.260020894434644134e+01
1.350390624999999248e-02,0.000000000000000000e+00,0.000000000000000000e+00,2.714276639145546399e-01,0.000000000000000000e+00,0.000000000000000000e+00,2.355984507584805598e+01,2.661366770465094511e+00,-6.987673034889486656e-01,0.000000000000000000e+00,0.000000000000000000e+00,0.000000000000000000e+00,3.808087097426808043e+01,-1.269424100651069409e+01
1.360390624999999187e-02,0.000000000000000000e+00,0.000000000000000000e+00,2.737725363262211720e-01,0.000000000000000000e+00,0.000000000000000000e+00,2.333696797456017435e+01,2.670141782420204279e+00,-7.157070865076438082e-01,0.000000000000000000e+00,0.000000000000000000e+00,0.000000000000000000e+00,3.836316693631401620e+01,-1.278827760416593762e+01
1.370390624999999127e-02,0.000000000000000000e+00,0.000000000000000000e+00,2.760420957124045116e-01,0.000000000000000000e+00,0.000000000000000000e+00,2.205972650590748785e+01,2.662301483462664375e+00,-7.211592277029833520e-01,0.000000000000000000e+00,0.000000000000000000e+00,0.000000000000000000e+00,3.864486043172772156e+01,-1.288227843404295747e+01
1.380390624999999066e-02,0.000000000000000000e+00,0.000000000000000000e+00,2.782247264357676775e-01,0.000000000000000000e+00,0.000000000000000000e+00,2.158504305679429436e+01,2.649784095444228438e+00,-7.286607988406665903e-01,0.000000000000000000e+00,0.000000000000000000e+00,0.000000000000000000e+00,3.892717241072411838e+01,-1.297628110877775498e+01
1.390390624999999006e-02,0.000000000000000000e+00,0.000000000000000000e+00,2.803352168470613637e-01,0.000000000000000000e+00,0.000000000000000000e+00,2.063275574018432224e+01,2.630408966865484643e+00,-7.287386158791198110e-01,0.000000000000000000e+00,0.000000000000000000e+00,0.000000000000000000e+00,3.920885911724494122e+01,-1.307025984400386598e+01
1.400390624999998945e-02,0.000000000000000000e+00,0.000000000000000000e+00,2.824225777857271025e-01,0.000000000000000000e+00,0.000000000000000000e+00,2.110185083590502941e+01,2.620548943695045985e+00,-7.377513676181781666e-01,0.000000000000000000e+00,0.000000000000000000e+00,0.000000000000000000e+00,3.949117034252066105e+01,-1.316424563143924331e+01
1.410390624999998885e-02,0.000000000000000000e+00,0.000000000000000000e+00,2.845263232533120079e-01,0.000000000000000000e+00,0.000000000000000000e+00,2.098503442719382051e+01,2.611860779977471569e+00,-7.426543707212900358e-01,0.000000000000000000e+00,0.000000000000000000e+00,0.000000000000000000e+00,3.977286390474372268e+01,-1.325822776344918807e+01
1.420390624999998824e-02,0.000000000000000000e+00,0.000000000000000000e+00,2.858452696446598384e-01,0.000000000000000000e+00,0.000000000000000000e+00,5.458912381123504076e+00,2.248389676265322379e+00,-4.809871183199372346e-01,0.000000000000000000e+00,0.000000000000000000e+00,0.000000000000000000e+00,4.005516340026804301e+01,-1.335161155578049552e+01
1.430390624999998764e-02,0.000000000000000000e+00,0.000000000000000000e+00,2.863944127406836127e-01,0.000000000000000000e+00,0.000000000000000000e+00,5.402644566155434980e+00,2.260924740345355843e+00,-6.125177669776413758e-01,0.000000000000000000e+00,0.000000000000000000e+00,0.000000000000000000e+00,4.033687252292195069e+01,-1.344542303601558508e+01
1.440390624999998703e-02,0.000000000000000000e+00,0.000000000000000000e+00,2.881154125390814058e-01,0.000000000000000000e+00,0.000000000000000000e+00,2.899243416977773080e+01,2.730364905906507822e+00,-9.610202245449100955e-01,0.000000000000000000e+00,0.000000000000000000e+00,0.000000000000000000e+00,4.061915351077119141e+01,-1.354065199688251830e+01
1.450390624999998643e-02,0.000000000000000000e+00,0.000000000000000000e+00,2.913545953839927760e-01,0.000000000000000000e+00,0.000000000000000000e+00,3.588921520612837668e+01,2.748027103261350579e+00,-8.216773006852826633e-01,0.000000000000000000e+00,0.000000000000000000e+00,0.000000000000000000e+00,4.090088334329495012e+01,-1.363462577995257163e+01
1.460390624999998582e-02,0.000000000000000000e+00,0.000000000000000000e+00,2.942762428130831776e-01,0.000000000000000000e+00,0.000000000000000000e+00,2.256919721501155962e+01,2.493510198032736991e+00,-6.118522876060145110e-01,0.000000000000000000e+00,0.000000000000000000e+00,0.000000000000000000e+00,4.118314204459382921e+01,-1.372702575598426122e+01
1.470390624999998522e-02,0.000000000000000000e+00,0.000000000000000000e+00,2.962416156889790542e-01,0.000000000000000000e+00,0.000000000000000000e+00,1.668416704263215067e+01,2.561369440211706650e+00,-7.771230993222995043e-01,0.000000000000000000e+00,0.000000000000000000e+00,0.000000000000000000e+00,4.146489521791137633e+01,-1.382140613758276082e+01
1.480390624999998461e-02,0.000000000000000000e+00,0.000000000000000000e+00,2.984324548868045879e-01,0.000000000000000000e+00,0.000000000000000000e+00,2.709399165444036583e+01,3.276372976321605179e+00,-1.487358204598342892e+00,0.000000000000000000e+00,0.000000000000000000e+00,0.000000000000000000e+00,4.174712995788757297e+01,-1.391773049395956718e+01
1.485390624999998431e-02,0.000000000000000000e+00,0.000000000000000000e+00,2.995645673495976324e-01,0.000000000000000000e+00,0.000000000000000000e+00,2.040503059526774621e+01,3.580465886724220947e+00,-1.820527940649155685e+00,0.000000000000000000e+00,0.000000000000000000e+00,0.000000000000000000e+00,4.188757204496993580e+01,-1.396409833603937045e+01
1.490390624999998401e-02,0.000000000000000000e+00,0.000000000000000000e+00,3.004762287578949809e-01,0.000000000000000000e+00,0.000000000000000000e+00,1.444736400150971889e+01,3.266421150495786740e+00,-1.491705121729733019e+00,0.000000000000000000e+00,0.000000000000000000e+00,0.000000000000000000e+00,4.202972145941492954e+01,-1.401311358721373423e+01
1.495390624999998370e-02,0.000000000000000000e+00,0.000000000000000000e+00,3.007262620308843726e-01,0.000000000000000000e+00,0.000000000000000000e+00,-3.216161109425943021e+00,2.663818012013041692e+00,-1.045444074684595881e+00,0.000000000000000000e+00,0.000000000000000000e+00,0.000000000000000000e+00,4.216910442287824878e+01,-1.405790361776532293e+01
1.500390624999998340e-02,0.000000000000000000e+00,0.000000000000000000e+00,3.002646601095176893e-01,0.000000000000000000e+00,0.000000000000000000e+00,-1.616492674665380136e+01,2.011375689295144209e+00,-6.365048164936727426e-01,0.000000000000000000e+00,0.000000000000000000e+00,0.000000000000000000e+00,4.231208406294348379e+01,-1.410379086174945762e+01
1.505390624999998310e-02,0.000000000000000000e+00,0.000000000000000000e+00,2.992374115565601400e-01,0.000000000000000000e+00,0.000000000000000000e+00,-2.428122015640028764e+01,5.815515090439998147e+00,-3.029516402611484693e+00,0.000000000000000000e+00,0.000000000000000000e+00,0.000000000000000000e+00,4.245083051042104927e+01,-1.415102362631570720e+01
1.510390624999998280e-02,0.000000000000000000e+00,0.000000000000000000e+00,2.980528629906198379e-01,0.000000000000000000e+00,0.000000000000000000e+00,-2.361097802313015492e+01,1.594509317718035390e+00,-4.500973977340695653e-02,0.000000000000000000e+00,0.000000000000000000e+00,0.000000000000000000e+00,4.259428339650771989e+01,-1.420181709501231992e+01
1.515390624999998249e-02,0.000000000000000000e+00,0.000000000000000000e+00,2.975426842805777849e-01,0.000000000000000000e+00,0.000000000000000000e+00,3.448659511259599686e+00,1.444703078579731459e+00,-1.892067215927761559e-01,0.000000000000000000e+00,0.000000000000000000e+00,0.000000000000000000e+00,4.273269357909165933e+01,-1.424785804027844449e+01
1.520390624999998219e-02,0.000000000000000000e+00,0.000000000000000000e+00,2.983155143098718542e-01,0.000000000000000000e+00,0.000000000000000000e+00,2.730182552780494731e+01,1.089724444111730417e+00,-7.437815291442272103e-02,0.000000000000000000e+00,0.000000000000000000e+00,0.000000000000000000e+00,4.287636841271223176e+01,-1.429096615810280468e+01
1.525390624999998189e-02,0.000000000000000000e+00,0.000000000000000000e+00,2.996530311214353204e-01,0.000000000000000000e+00,0.000000000000000000e+00,2.643546120511038566e+01,1.349187999872997423e+00,-2.590309677231333874e-01,0.000000000000000000e+00,0.000000000000000000e+00,0.000000000000000000e+00,4.301465146430442132e+01,-1.433498685575425746e+01
1.530390624999998159e-02,0.000000000000000000e+00,0.000000000000000000e+00,3.005936571230486964e-01,0.000000000000000000e+00,0.000000000000000000e+00,1.108678909240219213e+01,5.100065719589880864e+00,-2.472447400460514810e+00,0.000000000000000000e+00,0.000000000000000000e+00,0.000000000000000000e+00,4.315837535620450893e+01,-1.438333591550981083e+01
1.540390624999998098e-02,0.000000000000000000e+00,0.000000000000000000e+00,3.024801591342505813e-01,0.000000000000000000e+00,0.000000000000000000e+00,2.657048403846965812e+01,6.781664679094258075e-01,4.830925624582833589e-01,0.000000000000000000e+00,0.000000000000000000e+00,0.000000000000000000e+00,4.343768346553703452e+01,-1.448374930816494732e+01
1.550390624999998038e-02,0.000000000000000000e+00,0.000000000000000000e+00,3.041750767267870637e-01,0.000000000000000000e+00,0.000000000000000000e+00,7.545900713848202379e+00,3.831810604815566457e+00,-1.583454861755139387e+00,0.000000000000000000e+00,0.000000000000000000e+00,0.000000000000000000e+00,4.372231212975690795e+01,-1.457449470309596506e+01
1.560390624999997977e-02,0.000000000000000000e+00,0.000000000000000000e+00,3.044817587756297184e-01,0.000000000000000000e+00,0.000000000000000000e+00,-1.618009374684681756e+00,-3.728008368101677281e-03,8.435702361647189340e-01,0.000000000000000000e+00,0.000000000000000000e+00,0.000000000000000000e+00,4.400176096560178962e+01,-1.466425390842663568e+01
1.570390624999997917e-02,0.000000000000000000e+00,0.000000000000000000e+00,3.051068710347312751e-01,0.000000000000000000e+00,0.000000000000000000e+00,1.415059632295020542e+01,4.372491978678404223e+00,-2.187217982110983616e+00,0.000000000000000000e+00,0.000000000000000000e+00,0.000000000000000000e+00,4.428622384306275706e+01,-1.476200115401229773e+01
1.580390624999997856e-02,0.000000000000000000e+00,0.000000000000000000e+00,3.067203936335303749e-01,0.000000000000000000e+00,0.000000000000000000e+00,1.815408135731751926e+01,3.682906481410058164e-01,6.331583353700460659e-01,0.000000000000000000e+00,0.000000000000000000e+00,0.000000000000000000e+00,4.456585710659778954e+01,-1.485754002916126737e+01
1.590390624999997796e-02,0.000000000000000000e+00,0.000000000000000000e+00,3.088084602680737367e-01,0.000000000000000000e+00,0.000000000000000000e+00,2.357557518119923756e+01,6.843995191619469232e+00,-3.634400394652584243e+00,0.000000000000000000e+00,0.000000000000000000e+00,0.000000000000000000e+00,4.485012230149127532e+01,-1.495113840618550860e+01
1.595390624999997939e-02,0.000000000000000000e+00,0.000000000000000000e+00,3.094385260871663768e-01,0.000000000000000000e+00,0.000000000000000000e+00,3.635240624139049359e+00,8.333732609001952563e-01,6.729601484282604629e-01,0.000000000000000000e+00,0.000000000000000000e+00,0.000000000000000000e+00,4.498861159939737320e+01,-1.499741301994206033e+01
1.597890624999998010e-02,0.000000000000000000e+00,0.000000000000000000e+00,3.097697786510141826e-01,0.000000000000000000e+00,0.000000000000000000e+00,2.419857574395156519e+01,1.381619969233024658e+00,-7.101577776551730448e-02,0.000000000000000000e+00,0.000000000000000000e+00,0.000000000000000000e+00,4.506165778836570723e+01,-1.501978610831951144e+01
1.600390624999998082e-02,0.000000000000000000e+00,0.000000000000000000e+00,3.105613594350681295e-01,0.000000000000000000e+00,0.000000000000000000e+00,3.818943513428167336e+01,1.025710961785865516e+00,1.205379585939406473e-01,0.000000000000000000e+00,0.000000000000000000e+00,0.000000000000000000e+00,4.513009699168240019e+01,-1.504363209435623894e+01
1.605390624999998225e-02,0.000000000000000000e+00,0.000000000000000000e+00,3.129182218098318646e-01,0.000000000000000000e+00,0.000000000000000000e+00,5.470736111866980877e+01,1.372944549020132854e+00,-3.405217699072640158e-01,0.000000000000000000e+00,0.000000000000000000e+00,0.000000000000000000e+00,4.527144862022257144e+01,-1.508902546726721638e+01
1.610390624999998369e-02,0.000000000000000000e+00,0.000000000000000000e+00,3.158333798843681040e-01,0.000000000000000000e+00,0.000000000000000000e+00,5.307994166557163851e+01,6.640967462808977650e+00,-3.818549226678420005e+00,0.000000000000000000e+00,0.000000000000000000e+00,0.000000000000000000e+00,4.541269979258787259e+01,-1.513629466054558925e+01
1.615390624999998512e-02,0.000000000000000000e+00,0.000000000000000000e+00,3.167028925191365252e-01,0.000000000000000000e+00,0.000000000000000000e+00,-1.707176095791082560e+01,3.337068964455470077e+00,-7.671314955053709639e-01,0.000000000000000000e+00,0.000000000000000000e+00,0.000000000000000000e+00,4.555387598832675167e+01,-1.518956768793830925e+01
1.620390624999998655e-02,0.000000000000000000e+00,0.000000000000000000e+00,3.163393027597038443e-01,0.000000000000000000e+00,0.000000000000000000e+00,5.681096785570765917e+00,1.110020378067837266e+00,1.962246334200054843e-01,0.000000000000000000e+00,0.000000000000000000e+00,0.000000000000000000e+00,4.569499663122888933e+01,-1.523670214793768629e+01
1.625390624999998798e-02,0.000000000000000000e+00,0.000000000000000000e+00,3.171597031344222661e-01,0.000000000000000000e+00,0.000000000000000000e+00,2.709287553797915749e+01,7.815350465492197918e-01,-4.141122562493866274e-03,0.000000000000000000e+00,0.000000000000000000e+00,0.000000000000000000e+00,4.583594621424552429e+01,-1.527833227025309171e+01
1.630390624999998941e-02,0.000000000000000000e+00,0.000000000000000000e+00,3.189450377350512844e-01,0.000000000000000000e+00,0.000000000000000000e+00,4.437086387247389752e+01,1.511335560317814464e+00,-6.534060631922198326e-01,0.000000000000000000e+00,0.000000000000000000e+00,0.000000000000000000e+00,4.597715594931835170e+01,-1.532147375045638782e+01
1.635390624999999085e-02,0.000000000000000000e+00,0.000000000000000000e+00,3.209164663833919962e-01,0.000000000000000000e+00,0.000000000000000000e+00,3.457917992582614630e+01,2.159009280489243121e+00,-9.298872884330764421e-01,0.000000000000000000e+00,0.000000000000000000e+00,0.000000000000000000e+00,4.611781926394318276e+01,-1.536854237758779540e+01
1.640390624999999228e-02,0.000000000000000000e+00,0.000000000000000000e+00,3.218932268543026609e-01,0.000000000000000000e+00,0.000000000000000000e+00,4.520647394592010926e+00,5.961535651134320268e+00,-3.127269869762932419e+00,0.000000000000000000e+00,0.000000000000000000e+00,0.000000000000000000e+00,4.625925541220491510e+01,-1.541975691567205864e+01
1.645390624999999371e-02,0.000000000000000000e+00,0.000000000000000000e+00,3.220160495050994887e-01,0.000000000000000000e+00,0.000000000000000000e+00,2.474956213706480390e-01,2.344807911451803673e+00,-5.412136998593299886e-01,0.000000000000000000e+00,0.000000000000000000e+00,0.000000000000000000e+00,4.639974306048986818e+01,-1.547209206777622548e+01
1.650390624999999514e-02,0.000000000000000000e+00,0.000000000000000000e+00,3.225758217130900718e-01,0.000000000000000000e+00,0.000000000000000000e+00,2.212355902952778308e+01,2.383459815691327588e+00,-8.923340343124449570e-01,0.000000000000000000e+00,0.000000000000000000e+00,0.000000000000000000e+00,4.654131201348636182e+01,-1.551917493326885733e+01
1.655390624999999657e-02,0.000000000000000000e+00,0.000000000000000000e+00,3.235424027526741519e-01,0.000000000000000000e+00,0.000000000000000000e+00,1.668479997064334341e+01,1.431214655383858725e+00,-2.691347011684789292e-01,0.000000000000000000e+00,0.000000000000000000e+00,0.000000000000000000e+00,4.668170290298272107e+01,-1.556086472558758516e+01
1.660390624999999801e-02,0.000000000000000000e+00,0.000000000000000000e+00,3.238259487904104339e-01,0.000000000000000000e+00,0.000000000000000000e+00,-5.369000594440823448e+00,5.260186729275626583e+00,-2.771175781767977409e+00,0.000000000000000000e+00,0.000000000000000000e+00,0.000000000000000000e+00,4.682333844996406214e+01,-1.560494870283305957e+01
1.665390624999999944e-02,0.000000000000000000e+00,0.000000000000000000e+00,3.236518912404285353e-01,0.000000000000000000e+00,0.000000000000000000e+00,-1.697449478648246801e+00,1.548035956917035438e+00,-1.292258998662955682e-01,0.000000000000000000e+00,0.000000000000000000e+00,0.000000000000000000e+00,4.696368784490324089e+01,-1.565453051598711554e+01
1.670390625000000087e-02,0.000000000000000000e+00,0.000000000000000000e+00,3.242828265308248525e-01,0.000000000000000000e+00,0.000000000000000000e+00,2.689138370289517610e+01,1.971313708186286595e+00,-7.325899746106507848e-01,0.000000000000000000e+00,0.000000000000000000e+00,0.000000000000000000e+00,4.710534414095631917e+01,-1.570382060083815468e+01
1.675390625000000230e-02,0.000000000000000000e+00,0.000000000000000000e+00,3.258956042074859782e-01,0.000000000000000000e+00,0.000000000000000000e+00,3.295647120383681283e+01,1.548191648872822013e+00,-4.518322329522443948e-01,0.000000000000000000e+00,0.000000000000000000e+00,0.000000000000000000e+00,4.724633695727630567e+01,-1.574927987525000539e+01
1.680390625000000374e-02,0.000000000000000000e+00,0.000000000000000000e+00,3.270626173699216488e-01,0.000000000000000000e+00,0.000000000000000000e+00,1.479508836283343598e+01,6.567575041314007045e+00,-3.798190932152639476e+00,0.000000000000000000e+00,0.000000000000000000e+00,0.000000000000000000e+00,4.738732064396380395e+01,-1.579364109756439305e+01
1.685390625000000517e-02,0.000000000000000000e+00,0.000000000000000000e+00,3.274783800810637246e-01,0.000000000000000000e+00,0.000000000000000000e+00,1.165739833127378589e+01,2.634176237897738027e+00,-9.416224059455303719e-01,0.000000000000000000e+00,0.000000000000000000e+00,0.000000000000000000e+00,4.752829892962038372e+01,-1.584439602935250413e+01
1.690390625000000660e-02,0.000000000000000000e+00,0.000000000000000000e+00,3.286644903575146603e-01,0.000000000000000000e+00,0.000000000000000000e+00,3.434097325530959921e+01,1.793978081307476158e+00,-6.094050017264606156e-01,0.000000000000000000e+00,0.000000000000000000e+00,0.000000000000000000e+00,4.766927445554299680e+01,-1.589205958914418915e+01
1.695390625000000803e-02,0.000000000000000000e+00,0.000000000000000000e+00,3.306800418067817882e-01,0.000000000000000000e+00,0.000000000000000000e+00,4.095145613700436371e+01,1.525993219193921391e+00,-5.120125937593539289e-01,0.000000000000000000e+00,0.000000000000000000e+00,0.000000000000000000e+00,4.781024905431281269e+01,-1.593653954270848061e+01
1.700390625000000946e-02,0.000000000000000000e+00,0.000000000000000000e+00,3.324430353801349214e-01,0.000000000000000000e+00,0.000000000000000000e+00,2.959587729285348345e+01,1.327872580297895011e+00,-3.634813585728260410e-01,0.000000000000000000e+00,0.000000000000000000e+00,0.000000000000000000e+00,4.795080631548778172e+01,-1.598055741292306564e+01
1.705390625000001090e-02,0.000000000000000000e+00,0.000000000000000000e+00,3.338934967475156723e-01,0.000000000000000000e+00,0.000000000000000000e+00,2.835412009616295492e+01,5.916778718307662999e+00,-3.409227878033929127e+00,0.000000000000000000e+00,0.000000000000000000e+00,0.000000000000000000e+00,4.809220330438193969e+01,-1.602903629693961562e+01
1.710390625000001233e-02,0.000000000000000000e+00,0.000000000000000000e+00,3.351963566290741547e-01,0.000000000000000000e+00,0.000000000000000000e+00,2.382578753892583379e+01,2.246218145801541333e+00,-6.266232141726993943e-01,0.000000000000000000e+00,0.000000000000000000e+00,0.000000000000000000e+00,4.823284734282215425e+01,-1.608151342712768894e+01
1.715390625000001376e-02,0.000000000000000000e+00,0.000000000000000000e+00,3.368796036369370861e-01,0.000000000000000000e+00,0.000000000000000000e+00,4.334140459248505550e+01,2.227574263138465849e+00,-8.849147938969442739e-01,0.000000000000000000e+00,0.000000000000000000e+00,0.000000000000000000e+00,4.837416651262621770e+01,-1.612950336921525718e+01
1.720390625000001519e-02,0.000000000000000000e+00,0.000000000000000000e+00,3.388809165641829546e-01,0.000000000000000000e+00,0.000000000000000000e+00,3.695337208297122089e+01,1.495130241397325532e+00,-4.164564415315001322e-01,0.000000000000000000e+00,0.000000000000000000e+00,0.000000000000000000e+00,4.851488033584397641e+01,-1.617204930576476940e+01
1.725390625000001663e-02,0.000000000000000000e+00,0.000000000000000000e+00,3.399785856813886675e-01,0.000000000000000000e+00,0.000000000000000000e+00,6.890480652657104521e+00,5.409538480258272664e+00,-3.014615170779178843e+00,0.000000000000000000e+00,0.000000000000000000e+00,0.000000000000000000e+00,4.865613692651017175e+01,-1.621651002232339422e+01
1.730390625000001806e-02,0.000000000000000000e+00,0.000000000000000000e+00,3.403250432885163157e-01,0.000000000000000000e+00,0.000000000000000000e+00,6.869834977140989452e+00,1.657285624957396619e+00,-3.157394439597334124e-01,0.000000000000000000e+00,0.000000000000000000e+00,0.000000000000000000e+00,4.879690686650151576e+01,-1.626611255469788730e+01
1.735390625000001949e-02,0.000000000000000000e+00,0.000000000000000000e+00,3.412137970153000799e-01,0.000000000000000000e+00,0.000000000000000000e+00,2.864728147903819888e+01,2.058784310186518418e+00,-9.079770179768131833e-01,0.000000000000000000e+00,0.000000000000000000e+00,0.000000000000000000e+00,4.893811313607734093e+01,-1.631516760484397111e+01
1.740390625000002092e-02,0.000000000000000000e+00,0.000000000000000000e+00,3.425245429896375260e-01,0.000000000000000000e+00,0.000000000000000000e+00,2.393333429442251159e+01,1.218260027750326158e+00,-2.661855814430764688e-01,0.000000000000000000e+00,0.000000000000000000e+00,0.000000000000000000e+00,4.907892819944575535e+01,-1.636023341891124261e+01
1.745390625000002235e-02,0.000000000000000000e+00,0.000000000000000000e+00,3.436111790548534439e-01,0.000000000000000000e+00,0.000000000000000000e+00,1.942148548183968515e+01,1.507028970895750941e+00,-5.951420569482701595e-01,0.000000000000000000e+00,0.000000000000000000e+00,0.000000000000000000e+00,4.922009400702946635e+01,-1.640446758067394839e+01
1.755390625000002175e-02,0.000000000000000000e+00,0.000000000000000000e+00,3.458189341250852422e-01,0.000000000000000000e+00,0.000000000000000000e+00,2.476690492883186678e+01,4.783801625711328498e+00,-2.722062807226561354e+00,0.000000000000000000e+00,0.000000000000000000e+00,0.000000000000000000e+00,4.950195306921921912e+01,-1.650133853312969023e+01
1.765390625000002114e-02,0.000000000000000000e+00,0.000000000000000000e+00,3.478353215507423157e-01,0.000000000000000000e+00,0.000000000000000000e+00,1.560604145037709145e+01,8.976844587751761084e-01,1.021997024188976422e-01,0.000000000000000000e+00,0.000000000000000000e+00,0.000000000000000000e+00,4.978406473596099602e+01,-1.659841162021317373e+01
1.775390625000002054e-02,0.000000000000000000e+00,0.000000000000000000e+00,3.494016431907558395e-01,0.000000000000000000e+00,0.000000000000000000e+00,1.564350902122505715e+01,4.251807727416849758e+00,-2.416515218653449537e+00,0.000000000000000000e+00,0.000000000000000000e+00,0.000000000000000000e+00,5.006597789545110544e+01,-1.668829015525215098e+01
1.785390625000001993e-02,0.000000000000000000e+00,0.000000000000000000e+00,3.510676703620536632e-01,0.000000000000000000e+00,0.000000000000000000e+00,1.772317752922926459e+01,5.586167053673914973e-01,2.032917246242855469e-01,0.000000000000000000e+00,0.000000000000000000e+00,0.000000000000000000e+00,5.034804375830901790e+01,-1.678191924189249562e+01
1.795390625000001933e-02,0.000000000000000000e+00,0.000000000000000000e+00,3.529750657970724959e-01,0.000000000000000000e+00,0.000000000000000000e+00,2.038837098039662266e+01,4.398345038220071501e+00,-2.561092145134530540e+00,0.000000000000000000e+00,0.000000000000000000e+00,0.000000000000000000e+00,5.062999554597744378e+01,-1.687792767657925808e+01
1.805390625000001872e-02,0.000000000000000000e+00,0.000000000000000000e+00,3.552491749590163117e-01,0.000000000000000000e+00,0.000000000000000000e+00,2.511041464499079368e+01,4.863704497269483729e-01,2.697003604035096425e-01,0.000000000000000000e+00,0.000000000000000000e+00,0.000000000000000000e+00,5.091202897925809623e+01,-1.697183373969961906e+01
1.815390625000001812e-02,0.000000000000000000e+00,0.000000000000000000e+00,3.589526748279922574e-01,0.000000000000000000e+00,0.000000000000000000e+00,4.885648422417250458e+01,2.244983520467012994e+00,-1.329561767146388407e+00,0.000000000000000000e+00,0.000000000000000000e+00,0.000000000000000000e+00,5.119400785134223497e+01,-1.706260102900276721e+01
1.825390625000001751e-02,0.000000000000000000e+00,0.000000000000000000e+00,3.635747918194102146e-01,0.000000000000000000e+00,0.000000000000000000e+00,4.379865404120245387e+01,5.001032509361482248e+00,-2.888811547271435742e+00,0.000000000000000000e+00,0.000000000000000000e+00,0.000000000000000000e+00,5.147601880063565005e+01,-1.716003501216257376e+01
1.835390625000001691e-02,0.000000000000000000e+00,0.000000000000000000e+00,3.666567398668961753e-01,0.000000000000000000e+00,0.000000000000000000e+00,1.778580764434384065e+01,1.160101528309199104e+00,-9.902975520363509199e-02,0.000000000000000000e+00,0.000000000000000000e+00,0.000000000000000000e+00,5.175801620551871451e+01,-1.725674162668563838e+01
1.845390625000001630e-02,0.000000000000000000e+00,0.000000000000000000e+00,3.684893844581882405e-01,0.000000000000000000e+00,0.000000000000000000e+00,1.877751163492645148e+01,2.686556571962539941e+00,-2.132856644868926566e+00,0.000000000000000000e+00,0.000000000000000000e+00,0.000000000000000000e+00,5.204001200779951120e+01,-1.734492149075438405e+01
1.855390625000001570e-02,0.000000000000000000e+00,0.000000000000000000e+00,3.690283181495051523e-01,0.000000000000000000e+00,0.000000000000000000e+00,-7.801775520432624234e+00,5.222137041745004815e+00,-3.532545739743173208e+00,0.000000000000000000e+00,0.000000000000000000e+00,0.000000000000000000e+00,5.232202166573888746e+01,-1.744333733342505255e+01
1.865390625000001509e-02,0.000000000000000000e+00,0.000000000000000000e+00,3.676269856369394629e-01,0.000000000000000000e+00,0.000000000000000000e+00,-2.043492071061693593e+01,2.027546396477707957e-01,3.216499463142488136e-01,0.000000000000000000e+00,0.000000000000000000e+00,0.000000000000000000e+00,5.260400768160273799e+01,-1.753963214861752817e+01
1.875390625000001449e-02,0.000000000000000000e+00,0.000000000000000000e+00,3.661703716872165559e-01,0.000000000000000000e+00,0.000000000000000000e+00,-8.661375991920460038e+00,3.543650315446906784e+00,-2.285039576018363938e+00,0.000000000000000000e+00,0.000000000000000000e+00,0.000000000000000000e+00,5.288602503011696854e+01,-1.762689267350597788e+01
1.885390625000001388e-02,0.000000000000000000e+00,0.000000000000000000e+00,3.653149366379131457e-01,0.000000000000000000e+00,0.000000000000000000e+00,-8.418324111530919751e+00,2.106803258403311396e+00,-8.775026247613797459e-01,0.000000000000000000e+00,0.000000000000000000e+00,0.000000000000000000e+00,5.316800512994010575e+01,-1.772304246778348613e+01
1.895390625000001328e-02,0.000000000000000000e+00,0.000000000000000000e+00,3.668206604298192008e-01,0.000000000000000000e+00,0.000000000000000000e+00,3.828938944327759941e+01,9.396434478383032529e-02,3.105612845368149744e-01,0.000000000000000000e+00,0.000000000000000000e+00,0.000000000000000000e+00,5.345002689796103112e+01,-1.781777261333755646e+01
1.905390625000001267e-02,0.000000000000000000e+00,0.000000000000000000e+00,3.708018950527862123e-01,0.000000000000000000e+00,0.000000000000000000e+00,4.171939919202035441e+01,3.829484687592465963e+00,-2.347501325823742491e+00,0.000000000000000000e+00,0.000000000000000000e+00,0.000000000000000000e+00,5.373200383466758012e+01,-1.790854548577530991e+01
1.915390625000001207e-02,0.000000000000000000e+00,0.000000000000000000e+00,3.745960033369291065e-01,0.000000000000000000e+00,0.000000000000000000e+00,3.393707136562013460e+01,8.510264726489544795e-01,1.643911075521771112e-02,0.000000000000000000e+00,0.000000000000000000e+00,0.000000000000000000e+00,5.401402771649900103e+01,-1.800450840199887992e+01
1.925390625000001146e-02,0.000000000000000000e+00,0.000000000000000000e+00,3.779314630726168800e-01,0.000000000000000000e+00,0.000000000000000000e+00,3.290397229682085367e+01,4.643041732489673556e+00,-2.926043056229743922e+00,0.000000000000000000e+00,0.000000000000000000e+00,0.000000000000000000e+00,5.429600341046743495e+01,-1.810046986719456186e+01
1.935390625000001086e-02,0.000000000000000000e+00,0.000000000000000000e+00,3.796070694459154904e-01,0.000000000000000000e+00,0.000000000000000000e+00,6.615917303843310560e-01,1.291304805950955481e-01,3.620662473364006928e-01,0.000000000000000000e+00,0.000000000000000000e+00,0.000000000000000000e+00,5.457802781704042872e+01,-1.819308369154984462e+01
1.945390625000001025e-02,0.000000000000000000e+00,0.000000000000000000e+00,3.807891426720333428e-01,0.000000000000000000e+00,0.000000000000000000e+00,2.268138222561302442e+01,4.674218955540566434e+00,-3.172287114037319888e+00,0.000000000000000000e+00,0.000000000000000000e+00,0.000000000000000000e+00,5.486000357309661268e+01,-1.828636474115175403e+01
1.955390625000000965e-02,0.000000000000000000e+00,0.000000000000000000e+00,3.818879869187788434e-01,0.000000000000000000e+00,0.000000000000000000e+00,-2.722294997605931299e-01,2.648942153750392769e+00,-1.237458764891910423e+00,0.000000000000000000e+00,0.000000000000000000e+00,0.000000000000000000e+00,5.514202744287306501e+01,-1.838396378677090937e+01
1.965390625000000904e-02,0.000000000000000000e+00,0.000000000000000000e+00,3.836153879925641719e-01,0.000000000000000000e+00,0.000000000000000000e+00,3.423096146868795842e+01,5.017750272256510380e-01,-8.453039003466281121e-02,0.000000000000000000e+00,0.000000000000000000e+00,0.000000000000000000e+00,5.542400411487150080e+01,-1.847478695286471151e+01
1.975390625000000844e-02,0.000000000000000000e+00,0.000000000000000000e+00,3.862676948632245422e-01,0.000000000000000000e+00,0.000000000000000000e+00,1.947941871367775235e+01,3.497683473230603912e+00,-2.311813960055326689e+00,0.000000000000000000e+00,0.000000000000000000e+00,0.000000000000000000e+00,5.570602677075317644e+01,-1.856488104690874508e+01
1.985390625000000783e-02,0.000000000000000000e+00,0.000000000000000000e+00,3.875511448179977392e-01,0.000000000000000000e+00,0.000000000000000000e+00,5.701834642094879335e+00,2.675297889984356581e-01,2.090294069007886391e-01,0.000000000000000000e+00,0.000000000000000000e+00,0.000000000000000000e+00,5.598800488584734580e+01,-1.866242150614374040e+01
1.987890625000000855e-02,0.000000000000000000e+00,0.000000000000000000e+00,3.878282819057154440e-01,0.000000000000000000e+00,0.000000000000000000e+00,1.669779148178756500e+01,9.817421727345847504e-01,-5.315291822963936763e-01,0.000000000000000000e+00,0.000000000000000000e+00,0.000000000000000000e+00,5.605848280781252413e+01,-1.868593375773665954e+01
1.990390625000000580e-02,0.000000000000000000e+00,0.000000000000000000e+00,3.882124200903663835e-01,0.000000000000000000e+00,0.000000000000000000e+00,1.516182323846120283e+01,1.060913320586188924e+00,-6.244204422366645968e-01,0.000000000000000000e+00,0.000000000000000000e+00,0.000000000000000000e+00,5.612914853551241379e+01,-1.870886908025881468e+01
