time[s],flange_omega_x[rad/s],flange_omega_y[rad/s],flange_omega_z[rad/s],flange_alpha_x[rad/s2],flange_alpha_y[rad/s2],flange_alpha_z[rad/s2],cycloid_acc_x[m/s2],cycloid_acc_y[m/s2],cycloid_acc_z[m/s2],input_omega_x[rad/s],input_omega_y[rad/s],input_omega_z[rad/s],crank_omega_z[rad/s]
0.000000000000000000e+00,0.000000000000000000e+00,0.000000000000000000e+00,0.000000000000000000e+00,0.000000000000000000e+00,0.000000000000000000e+00,5.943184580896384272e-13,-3.072324283990767643e-09,-5.961229885218218005e-02,0.000000000000000000e+00,0.000000000000000000e+00,0.000000000000000000e+00,0.000000000000000000e+00,0.000000000000000000e+00
1.000000000000000048e-04,0.000000000000000000e+00,0.000000000000000000e+00,2.007565714215316186e-06,0.000000000000000000e+00,0.000000000000000000e+00,3.996011754903047719e-02,-1.659221853348780072e-09,-5.469473560382858562e-02,0.000000000000000000e+00,0.000000000000000000e+00,0.000000000000000000e+00,1.044579557318606050e-01,-3.148435452233475096e-02
2.000000000000000096e-04,0.000000000000000000e+00,0.000000000000000000e+00,6.775091211246791658e-06,0.000000000000000000e+00,0.000000000000000000e+00,5.564559118387260583e-02,1.708196596351042351e-09,-4.075487572697873706e-02,0.000000000000000000e+00,0.000000000000000000e+00,0.000000000000000000e+00,2.099107491373579937e-01,-7.355868425742027872e-02
3.000000000000000279e-04,0.000000000000000000e+00,0.000000000000000000e+00,1.270063626514658471e-05,0.000000000000000000e+00,0.000000000000000000e+00,6.272090769649947550e-02,3.124203393578200141e-09,-2.009251662315134079e-02,0.000000000000000000e+00,0.000000000000000000e+00,0.000000000000000000e+00,3.135230928466273825e-01,-1.018082256235977728e-01
4.000000000000000192e-04,0.000000000000000000e+00,0.000000000000000000e+00,2.037963949876817884e-05,0.000000000000000000e+00,0.000000000000000000e+00,9.086337698198954094e-02,0.000000000000000000e+00,0.000000000000000000e+00,0.000000000000000000e+00,0.000000000000000000e+00,0.000000000000000000e+00,4.196424274934610343e-01,-1.415407181238900192e-01
5.000000000000000104e-04,0.000000000000000000e+00,0.000000000000000000e+00,3.168566761056412708e-05,0.000000000000000000e+00,0.000000000000000000e+00,1.351767434448477578e-01,0.000000000000000000e+00,0.000000000000000000e+00,0.000000000000000000e+00,0.000000000000000000e+00,0.000000000000000000e+00,5.227399427066237170e-01,-1.745580424805670272e-01
6.000000000000000559e-04,0.000000000000000000e+00,0.000000000000000000e+00,4.664882905053393039e-05,0.000000000000000000e+00,0.000000000000000000e+00,1.642180604951842537e-01,0.000000000000000000e+00,0.000000000000000000e+00,0.000000000000000000e+00,0.000000000000000000e+00,0.000000000000000000e+00,6.292460702409680140e-01,-2.076584238622850853e-01
7.000000000000001013e-04,0.000000000000000000e+00,0.000000000000000000e+00,6.344480625715589854e-05,0.000000000000000000e+00,0.000000000000000000e+00,1.717089049350246088e-01,0.000000000000000000e+00,0.000000000000000000e+00,0.000000000000000000e+00,0.000000000000000000e+00,0.000000000000000000e+00,7.320643693384586426e-01,-2.459913052494075714e-01
8.000000000000001468e-04,0.000000000000000000e+00,0.000000000000000000e+00,8.136803939936895096e-05,0.000000000000000000e+00,0.000000000000000000e+00,1.867144053102108014e-01,0.000000000000000000e+00,0.000000000000000000e+00,0.000000000000000000e+00,0.000000000000000000e+00,0.000000000000000000e+00,8.387597836421297748e-01,-2.784740580931771015e-01
9.000000000000001922e-04,0.000000000000000000e+00,0.000000000000000000e+00,1.020040226073493908e-04,0.000000000000000000e+00,0.000000000000000000e+00,2.259195457155306619e-01,0.000000000000000000e+00,0.000000000000000000e+00,0.000000000000000000e+00,0.000000000000000000e+00,0.000000000000000000e+00,9.414635316085261385e-01,-3.147361312564726510e-01
1.000000000000000238e-03,0.000000000000000000e+00,0.000000000000000000e+00,1.266109211676810700e-04,0.000000000000000000e+00,0.000000000000000000e+00,2.662752571909958177e-01,0.000000000000000000e+00,0.000000000000000000e+00,0.000000000000000000e+00,0.000000000000000000e+00,0.000000000000000000e+00,1.048211815665009317e+00,-3.489932125928803530e-01
1.100000000000000283e-03,0.000000000000000000e+00,0.000000000000000000e+00,1.540652255827341022e-04,0.000000000000000000e+00,0.000000000000000000e+00,2.828831250108864159e-01,0.000000000000000000e+00,0.000000000000000000e+00,0.000000000000000000e+00,0.000000000000000000e+00,0.000000000000000000e+00,1.150913184492532437e+00,-3.830338230524416576e-01
1.200000000000000329e-03,0.000000000000000000e+00,0.000000000000000000e+00,1.827019529756340722e-04,0.000000000000000000e+00,0.000000000000000000e+00,2.898449985473935397e-01,0.000000000000000000e+00,0.000000000000000000e+00,0.000000000000000000e+00,0.000000000000000000e+00,0.000000000000000000e+00,1.257622926499211369e+00,-4.197926353645325959e-01
1.300000000000000374e-03,0.000000000000000000e+00,0.000000000000000000e+00,2.130514044741308821e-04,0.000000000000000000e+00,0.000000000000000000e+00,3.170518377759659612e-01,0.000000000000000000e+00,0.000000000000000000e+00,0.000000000000000000e+00,0.000000000000000000e+00,0.000000000000000000e+00,1.360395598118864902e+00,-4.536917600983775278e-01
1.400000000000000419e-03,0.000000000000000000e+00,0.000000000000000000e+00,2.469616363001405301e-04,0.000000000000000000e+00,0.000000000000000000e+00,3.611390811848941840e-01,0.000000000000000000e+00,0.000000000000000000e+00,0.000000000000000000e+00,0.000000000000000000e+00,0.000000000000000000e+00,1.467008214160052226e+00,-4.887150349439017272e-01
1.500000000000000465e-03,0.000000000000000000e+00,0.000000000000000000e+00,2.845687025701131067e-04,0.000000000000000000e+00,0.000000000000000000e+00,3.910799068307380666e-01,0.000000000000000000e+00,0.000000000000000000e+00,0.000000000000000000e+00,0.000000000000000000e+00,0.000000000000000000e+00,1.569897957255973253e+00,-5.234027421271626457e-01
1.600000000000000510e-03,0.000000000000000000e+00,0.000000000000000000e+00,3.240755231936315425e-04,0.000000000000000000e+00,0.000000000000000000e+00,3.991048842547595399e-01,0.000000000000000000e+00,0.000000000000000000e+00,0.000000000000000000e+00,0.000000000000000000e+00,0.000000000000000000e+00,1.676378516671921837e+00,-5.581395941106147562e-01
1.700000000000000556e-03,0.000000000000000000e+00,0.000000000000000000e+00,3.647044407654744490e-04,0.000000000000000000e+00,0.000000000000000000e+00,4.134082426344646843e-01,0.000000000000000000e+00,0.000000000000000000e+00,0.000000000000000000e+00,0.000000000000000000e+00,0.000000000000000000e+00,1.779411133797488498e+00,-5.940230459462672030e-01
1.800000000000000601e-03,0.000000000000000000e+00,0.000000000000000000e+00,4.079682468246251183e-04,0.000000000000000000e+00,0.000000000000000000e+00,4.518000588042935250e-01,0.000000000000000000e+00,0.000000000000000000e+00,0.000000000000000000e+00,0.000000000000000000e+00,0.000000000000000000e+00,1.885741485826527564e+00,-6.283433437510821395e-01
1.900000000000000647e-03,0.000000000000000000e+00,0.000000000000000000e+00,4.551835630965279651e-04,0.000000000000000000e+00,0.000000000000000000e+00,4.925443342978935712e-01,0.000000000000000000e+00,0.000000000000000000e+00,0.000000000000000000e+00,0.000000000000000000e+00,0.000000000000000000e+00,1.988928748284520154e+00,-6.629948805958383318e-01
2.000000000000000475e-03,0.000000000000000000e+00,0.000000000000000000e+00,5.052994561615426362e-04,0.000000000000000000e+00,0.000000000000000000e+00,5.098579498492642470e-01,0.000000000000000000e+00,0.000000000000000000e+00,0.000000000000000000e+00,0.000000000000000000e+00,0.000000000000000000e+00,2.095102406698563513e+00,-6.978224065505829188e-01
2.025000000000000324e-03,2.677163867973732673e-28,1.023150332024005791e-28,5.180484164873420212e-04,2.131532374959066053e-23,8.146225498826789356e-24,5.100792591502215645e-01,3.808571953558320899e+00,-9.479072952063563595e-02,0.000000000000000000e+00,0.000000000000000000e+00,0.000000000000000000e+00,2.119880114693096118e+00,-7.061921880120686223e-01
2.050000000000000173e-03,-6.799098707363712953e-27,2.149199580235109997e-27,5.307945738831429524e-04,-7.637145091673737728e-22,4.642393024245715105e-22,5.095255326398232532e-01,9.581144686118118869e+00,-6.979321763954960955e-01,0.000000000000000000e+00,0.000000000000000000e+00,0.000000000000000000e+00,2.146085407680060175e+00,-7.140016847252297350e-01
2.099999999999999870e-03,-1.373446012222758878e-26,4.029206687924577833e-27,5.562033050687912065e-04,-1.684983055153800650e-20,4.943691616920820253e-21,5.069587258106866834e-01,1.428259799939886143e+01,1.374845535200490132e-01,0.000000000000000000e+00,0.000000000000000000e+00,0.000000000000000000e+00,2.198535563254766068e+00,-7.247499010448713586e-01
2.149999999999999568e-03,-1.193725533235674971e-26,4.164106887352318356e-27,5.817102050020881527e-04,-2.949378563950243878e-20,9.079815803905794545e-21,5.164631709616206434e-01,1.272579783559633881e+01,-1.793336393612313118e-01,0.000000000000000000e+00,0.000000000000000000e+00,0.000000000000000000e+00,2.251002814055643952e+00,-7.435351928512469177e-01
2.199999999999999265e-03,-9.217524267902104045e-27,2.346927646656731506e-27,6.081404737770787277e-04,-2.979955942953419725e-20,9.159293300811952357e-21,5.421435951125420649e-01,1.161320098844222493e+01,-1.045211756875685793e+00,0.000000000000000000e+00,0.000000000000000000e+00,0.000000000000000000e+00,2.303458659798484742e+00,-7.722429555968119974e-01
2.249999999999998963e-03,-6.479341781248869247e-27,1.914230877860078620e-27,6.360280973619412796e-04,-2.861645160209730078e-20,8.745575651915463045e-21,5.733609809807023172e-01,8.446223116925986929e+00,-2.458225884586667132e+00,0.000000000000000000e+00,0.000000000000000000e+00,0.000000000000000000e+00,2.355895073980546428e+00,-7.896149192451225041e-01
2.299999999999998660e-03,-5.113455091042124663e-27,1.435990812000243277e-27,6.654533454118558965e-04,-2.666124856067940610e-20,8.112890268321792044e-21,6.033049798332075220e-01,3.869722085533252365e+00,-4.269041440878578619e+00,0.000000000000000000e+00,0.000000000000000000e+00,0.000000000000000000e+00,2.408315976143415860e+00,-8.047310914227338019e-01
2.349999999999998358e-03,-4.055044451976293800e-27,1.117484036797942572e-27,6.962534212471868482e-04,-2.436049543166533478e-20,7.372185268513182921e-21,6.279253164987876890e-01,8.721472664061483693e-01,-5.257209489475217268e+00,0.000000000000000000e+00,0.000000000000000000e+00,0.000000000000000000e+00,2.460724497882492479e+00,-8.211916564143878494e-01
2.399999999999998055e-03,-3.174169645047326016e-27,-1.099038997854652932e-26,7.281917172944217705e-04,-2.192308494863476799e-20,5.652359572809312711e-21,6.498694695872825333e-01,3.346726584438873831e-01,-5.079872591040909491e+00,0.000000000000000000e+00,0.000000000000000000e+00,0.000000000000000000e+00,2.513123140770516351e+00,-8.360808162261480492e-01
2.449999999999998186e-03,-1.294793240269053216e-27,2.129033771025192869e-26,7.613727289897615283e-04,2.029366162934490322e-20,-3.867650234425902939e-21,6.772951166338866402e-01,1.717153448922073666e+00,-4.159871630009149612e+00,0.000000000000000000e+00,0.000000000000000000e+00,0.000000000000000000e+00,2.565753099038334817e+00,-8.515584247704339749e-01
2.499999999999997884e-03,-5.330971186966477483e-26,-5.893524402163563376e-26,7.958091813705626353e-04,9.227550955468898913e-21,-8.996452713318873084e-21,7.078241422920162895e-01,4.309962584277144515e+00,-2.865833335825654249e+00,0.000000000000000000e+00,0.000000000000000000e+00,0.000000000000000000e+00,2.618139668959611477e+00,-8.689688002377277121e-01
2.549999999999998015e-03,-5.255763037865635548e-26,-5.656947695023784767e-26,8.310193180957199102e-04,-8.160999424720613120e-20,-1.032467645465557018e-19,7.374430108956280261e-01,6.652732144198146180e+00,-1.652161708402296147e+00,0.000000000000000000e+00,0.000000000000000000e+00,0.000000000000000000e+00,2.670487539445515868e+00,-8.876843218492925791e-01
2.599999999999999447e-03,-3.815834371296782940e-26,-4.078360387086224059e-26,8.684437481756327685e-04,-2.521293285782881694e-19,-2.784361018878713309e-19,7.616213349467763072e-01,7.267145110790113272e+00,-1.149877912992870455e+00,0.000000000000000000e+00,0.000000000000000000e+00,0.000000000000000000e+00,2.722860373810759960e+00,-9.075314193799348672e-01
2.649999999999999144e-03,-2.255374319936571430e-26,-2.847171496044479084e-26,9.069119872035608055e-04,-2.283381307007955282e-19,-2.544070970100797067e-19,7.760783199528591414e-01,6.246861075716770628e+00,-1.474665624697016231e+00,0.000000000000000000e+00,0.000000000000000000e+00,0.000000000000000000e+00,2.775187629185137617e+00,-9.264255898371549502e-01
2.699999999999998842e-03,-1.407655701064723842e-26,-1.861864552139507656e-26,9.458839195752019114e-04,-1.889997299405492404e-19,-2.145211585411968528e-19,7.815520992043225590e-01,4.355781570657295987e+00,-2.357944441593265328e+00,0.000000000000000000e+00,0.000000000000000000e+00,0.000000000000000000e+00,2.827519967485678798e+00,-9.451067923497668000e-01
2.749999999999998539e-03,-8.775229139684779620e-27,-1.225005557691654018e-26,9.849447438825234720e-04,-1.485258481813692167e-19,-1.720280013844040015e-19,7.804656104844505116e-01,2.526619893414136619e+00,-3.337069666959471270e+00,0.000000000000000000e+00,0.000000000000000000e+00,0.000000000000000000e+00,2.879857750810508765e+00,-9.609586595278315491e-01
2.812499999999998161e-03,-4.566148650353038837e-27,-6.814756908905044756e-27,1.033773191906122487e-03,-1.117797486914714078e-19,-1.319885353176507959e-19,7.836709709742512020e-01,1.873900879419897247e+00,-2.823737003747724295e+00,0.000000000000000000e+00,0.000000000000000000e+00,0.000000000000000000e+00,2.945286855387951430e+00,-9.803465973122927890e-01
2.849999999999998802e-03,-4.902264900651704437e-28,6.004610814294796578e-28,1.062776163470983363e-03,8.175792091736201970e-20,9.996457413427441621e-20,7.927355075808886209e-01,1.894885598634656443e+00,-2.228157184814478331e+00,0.000000000000000000e+00,0.000000000000000000e+00,0.000000000000000000e+00,2.984527644090271714e+00,-9.929176101834099599e-01
2.899999999999999800e-03,-7.178718443308727956e-25,-2.206803400705805835e-25,1.102851637524341656e-03,-1.540386807298342181e-19,-8.786233454325586559e-20,8.152162949351403620e-01,2.710659084685945075e+00,-1.040140928046207724e+00,0.000000000000000000e+00,0.000000000000000000e+00,0.000000000000000000e+00,3.036816897128969295e+00,-1.009638744984575842e+00
2.950000000000001232e-03,-1.734126680584308222e-24,-5.379583362688807430e-25,1.144369467102445380e-03,-8.579974669394192888e-18,-2.686867096627111462e-18,8.521598635716781667e-01,4.486759172275163188e+00,1.544391398022648465e+00,0.000000000000000000e+00,0.000000000000000000e+00,0.000000000000000000e+00,3.089231530924296809e+00,-1.027591820838293479e+00
3.000000000000002665e-03,-1.059437928181929136e-24,-3.279914433841776027e-25,1.187976878353555346e-03,-1.118311577763598059e-17,-3.481682847451063018e-18,8.949876717935550952e-01,5.127145568924841967e+00,1.031589502437530648e+01,0.000000000000000000e+00,0.000000000000000000e+00,0.000000000000000000e+00,3.141629051158337127e+00,-1.046893032006738444e+00
3.050000000000004097e-03,-5.447772553540990250e-25,-1.685043280802477367e-25,1.233870553395969650e-03,-9.402875382565484752e-18,-2.921392297731961589e-18,9.470061963979888864e-01,1.998357239322184675e+00,9.231356884863419765e+00,0.000000000000000000e+00,0.000000000000000000e+00,0.000000000000000000e+00,3.194019084909411443e+00,-1.066921798366209817e+00
3.100000000000005529e-03,-2.730409971967619620e-25,-8.431552283751776968e-26,1.282574002898543902e-03,-6.417972588768648355e-18,-1.990887520869017376e-18,9.974468616016730627e-01,-6.321274834974494050e-01,9.765701026961275844e+00,0.000000000000000000e+00,0.000000000000000000e+00,0.000000000000000000e+00,3.246362962589057322e+00,-1.083455283195960739e+00
3.150000000000006527e-03,-1.152220226215785154e-26,4.957768765074615511e-26,1.333127967961344465e-03,4.382191683885455305e-18,1.424865973461066180e-18,1.025322574508733542e+00,-5.927533830000763615e+00,1.307181728569096002e+01,0.000000000000000000e+00,0.000000000000000000e+00,0.000000000000000000e+00,3.298668876268003647e+00,-1.100104106851323538e+00
3.200000000000007960e-03,-1.369039676504355653e-25,-4.338398276496920203e-27,1.384891042967315977e-03,1.972528194955959397e-18,8.569813717046441040e-19,1.048268376640863142e+00,-9.732341010845901863e+00,1.264155463887603759e+01,0.000000000000000000e+00,0.000000000000000000e+00,0.000000000000000000e+00,3.351074641827364253e+00,-1.117612940816265388e+00
3.250000000000009392e-03,-1.161100857619930857e-25,-1.288911954035148198e-26,1.437844026779726411e-03,2.999644254362245938e-19,3.605156684548730419e-19,1.069764522187637290e+00,-1.167796931549109374e+01,1.174019333136129184e+01,0.000000000000000000e+00,0.000000000000000000e+00,0.000000000000000000e+00,3.403429244039462453e+00,-1.132256691433776385e+00
3.300000000000009523e-03,8.558646274213324063e-26,1.237953225989033112e-26,1.491915768782463379e-03,1.092587049251409637e-19,-1.869505616039137249e-19,1.095014315215427247e+00,-1.115745375388626215e+01,1.107810595901698214e+01,0.000000000000000000e+00,0.000000000000000000e+00,0.000000000000000000e+00,3.455726621495299078e+00,-1.148077910348981545e+00
3.350000000000010955e-03,7.274404650132063795e-26,1.966198392495382837e-26,1.547602162193316422e-03,3.904668010873637084e-19,-3.978809908672763507e-20,1.144046405905093211e+00,-7.956605542125230635e+00,8.632458847754080011e+00,0.000000000000000000e+00,0.000000000000000000e+00,0.000000000000000000e+00,3.508151592585574630e+00,-1.163078447309356944e+00
3.400000000000012387e-03,-4.136028659768185002e-26,-1.411031100079232386e-26,1.606261283472084234e-03,-6.428468793496163828e-19,-1.328484228895353624e-19,1.221517200662455505e+00,-3.616464408201336855e+00,4.953633351951057584e+00,0.000000000000000000e+00,0.000000000000000000e+00,0.000000000000000000e+00,3.560460606576130616e+00,-1.179717355206041152e+00
3.450000000000013820e-03,-1.934572104656191071e-26,-1.358105773826233914e-26,1.669171356314861840e-03,-5.046125261858411600e-19,-1.610960799722610430e-19,1.292480188501457405e+00,5.430825980698262834e-01,2.042063876748657414e+00,0.000000000000000000e+00,0.000000000000000000e+00,0.000000000000000000e+00,3.612845794886163642e+00,-1.199091046556579165e+00
3.500000000000014384e-03,-7.736520472968003605e-27,-8.149122085012580271e-27,1.735480084245607200e-03,-3.401656086151722846e-19,-1.314716715980526171e-19,1.358967226045581178e+00,2.453905737954615862e+00,-2.752299353493084522e-01,0.000000000000000000e+00,0.000000000000000000e+00,0.000000000000000000e+00,3.665205925976333212e+00,-1.221385878969625027e+00
3.550000000000014082e-03,-1.427974922116761767e-25,1.247476843214712470e-25,1.804560906692168369e-03,-3.754691104339296611e-19,2.217175969478252968e-20,1.399279376387900120e+00,4.274254293828749773e+00,-1.945374431151758454e+00,0.000000000000000000e+00,0.000000000000000000e+00,0.000000000000000000e+00,3.717563654573150078e+00,-1.231807165247984948e+00
3.600000000000013779e-03,-1.210164731920943997e-25,1.105554979529499193e-25,1.875091609260163975e-03,-4.370603591887452797e-19,1.756379579353709436e-19,1.421516643434333815e+00,6.637165875833007433e+00,-4.344795490912956915e+00,0.000000000000000000e+00,0.000000000000000000e+00,0.000000000000000000e+00,3.769921146732297057e+00,-1.250684431046987788e+00
3.650000000000013477e-03,-1.033768631239327325e-25,9.386406021883665546e-26,1.946858547123419365e-03,-4.154620605882164993e-19,1.950918647188957066e-19,1.450356449977779683e+00,6.784765655286354225e+00,-7.391221427720625847e+00,0.000000000000000000e+00,0.000000000000000000e+00,0.000000000000000000e+00,3.822278935279936452e+00,-1.269736827566642967e+00
3.700000000000013174e-03,-8.729959193795918318e-26,8.088136989535203717e-26,2.020318417963255266e-03,-4.219378394697273077e-19,2.619190615690539163e-19,1.489846819945365164e+00,5.403623437592174339e-01,-1.698187092567019718e+01,0.000000000000000000e+00,0.000000000000000000e+00,0.000000000000000000e+00,3.874637067024480075e+00,-1.290165067482652805e+00
3.750000000000012872e-03,-6.866619723803521082e-26,6.411983659935343488e-26,2.096293300922264045e-03,-4.040909783478644723e-19,2.885394772345598457e-19,1.555802028434340567e+00,-1.983751260467354838e+00,-1.439781715495399972e+01,0.000000000000000000e+00,0.000000000000000000e+00,0.000000000000000000e+00,3.926995468374339548e+00,-1.308430377053365179e+00
3.812500000000012493e-03,-4.875545028890716864e-26,4.631090390916628178e-26,2.196170433751985611e-03,-3.588092728499704239e-19,2.761342090988444494e-19,1.632687700548496545e+00,-4.691965477056256439e+00,-1.260240904215870295e+01,0.000000000000000000e+00,0.000000000000000000e+00,0.000000000000000000e+00,3.992443878358752585e+00,-1.327497141012541348e+00
3.862500000000012191e-03,-3.636998891177078711e-26,3.524527416122622836e-26,2.278695137207941042e-03,-3.191556434715191787e-19,2.504389050114878090e-19,1.666134410264598298e+00,-5.605848828464109701e+00,-9.653852745004751768e+00,0.000000000000000000e+00,0.000000000000000000e+00,0.000000000000000000e+00,4.044802905600526799e+00,-1.343627679444253653e+00
3.912500000000012322e-03,-2.720620684060589162e-26,2.673087149494973163e-26,2.362609384311039479e-03,-2.801452965166859505e-19,2.233632799629753751e-19,1.690631802876642720e+00,-5.720368307933628493e+00,-6.178352587239077209e+00,0.000000000000000000e+00,0.000000000000000000e+00,0.000000000000000000e+00,4.097162139922526869e+00,-1.359328323594154453e+00
3.962500000000012020e-03,-4.403606556762352962e-26,2.701514669072337795e-26,2.447941316759613684e-03,-2.451565072682088118e-19,1.971377858310311127e-19,1.724446677368560721e+00,-4.679291637795424563e+00,-2.741777454733943742e+00,0.000000000000000000e+00,0.000000000000000000e+00,0.000000000000000000e+00,4.149521533330758238e+00,-1.377580812158437418e+00
4.012500000000011717e-03,-6.185576274584028243e-26,2.846086757860680047e-26,2.535342152748034164e-03,-2.242380988094869766e-19,1.754190959550387375e-19,1.773547953539159394e+00,-3.086177665246488289e+00,-2.936213688209967851e-02,0.000000000000000000e+00,0.000000000000000000e+00,0.000000000000000000e+00,4.201881048593675061e+00,-1.395763906939012200e+00
4.050000000000011924e-03,-5.394621032827296126e-26,2.263695780996529201e-26,2.601760339520328355e-03,-2.248738905512406048e-19,1.667416514492888386e-19,1.818619778502921447e+00,-1.850064653079316113e+00,1.206495952924726112e+00,0.000000000000000000e+00,0.000000000000000000e+00,0.000000000000000000e+00,4.241120862084645893e+00,-1.408485288966957460e+00
4.100000000000013356e-03,-3.827089754069943829e-26,1.224869660124772366e-26,2.694572881582261731e-03,-2.332570303912427412e-19,1.521943393328654587e-19,1.884248712102828627e+00,-6.288682940133082100e-02,2.648290490551049370e+00,0.000000000000000000e+00,0.000000000000000000e+00,0.000000000000000000e+00,4.293412379361174480e+00,-1.425849981435798330e+00
4.150000000000014788e-03,-2.576031554939145816e-26,7.670472766097348136e-27,2.790669005771008199e-03,-2.139421059251494121e-19,1.237400607554299954e-19,1.956304142823389158e+00,1.634899949629891269e+00,3.265037005709614082e+00,0.000000000000000000e+00,0.000000000000000000e+00,0.000000000000000000e+00,4.345754370638877262e+00,-1.443868945957390793e+00
4.212500000000014844e-03,1.481235395405226916e-26,-4.642478222355125158e-27,2.915594993728615105e-03,1.825957301866524720e-19,-1.008694413806432224e-19,2.038311303579326772e+00,3.049026782931277157e+00,3.442279955409512038e+00,0.000000000000000000e+00,0.000000000000000000e+00,0.000000000000000000e+00,4.411430988626570127e+00,-1.465226570258679972e+00
4.262500000000014541e-03,9.432890937230226354e-27,-2.302463261894833641e-27,3.018915370319638723e-03,1.587348456675121201e-19,-8.587156719509225494e-20,2.094132377174434456e+00,3.800164366275391004e+00,3.446481123418346559e+00,0.000000000000000000e+00,0.000000000000000000e+00,0.000000000000000000e+00,4.463784098464750549e+00,-1.482358644670195513e+00
4.300000000000015615e-03,5.120362014108385107e-27,1.213843801030369424e-27,3.098083666936735179e-03,1.220721760297662911e-19,-5.194591945784051237e-20,2.131522822362946101e+00,4.379045068670540886e+00,3.388476090855669920e+00,0.000000000000000000e+00,0.000000000000000000e+00,0.000000000000000000e+00,4.503051972778035150e+00,-1.495017270392053454e+00
4.350000000000017047e-03,-1.435712507185012254e-26,-9.345276074112302992e-26,3.205861575743739530e-03,7.818159938100392903e-20,-5.549999132387472765e-20,2.180678173340870440e+00,4.611744483551611928e+00,3.293259762096821142e+00,0.000000000000000000e+00,0.000000000000000000e+00,0.000000000000000000e+00,4.555382076795688739e+00,-1.513139824355575147e+00
4.400000000000018480e-03,-1.705582662364865677e-26,-8.531348532654761461e-26,3.316271393849843339e-03,3.401110107823868012e-20,-1.523166122549381194e-19,2.237593187205322298e+00,4.563372868026246643e+00,3.156812815828906160e+00,0.000000000000000000e+00,0.000000000000000000e+00,0.000000000000000000e+00,4.607719070837040576e+00,-1.530952731364159103e+00
4.450000000000019912e-03,-1.434729916877951816e-26,-7.141344682741683530e-26,3.429840311641248370e-03,5.310673322605391871e-22,-2.160265678624001640e-19,2.307082466090726758e+00,4.464357567961249273e+00,2.358388187863373897e+00,0.000000000000000000e+00,0.000000000000000000e+00,0.000000000000000000e+00,4.660063202696504092e+00,-1.560628518807511744e+00
4.512500000000019967e-03,1.097491950625836722e-26,5.452519477655512155e-26,3.576966113418729269e-03,1.118510370776936470e-20,2.186924779372014617e-19,2.401802442488508049e+00,3.124933606867915881e+00,1.900413343903238683e+00,0.000000000000000000e+00,0.000000000000000000e+00,0.000000000000000000e+00,4.725458120377591165e+00,-1.574792890860223116e+00
4.550000000000021042e-03,-1.388387646710469813e-26,-4.462828144364334462e-26,3.667180337700100875e-03,-1.932843811501825774e-20,-2.286648949692324576e-19,2.463290635834151754e+00,2.443758027064207194e+00,2.285620557577063394e+00,0.000000000000000000e+00,0.000000000000000000e+00,0.000000000000000000e+00,4.764680742156783388e+00,-1.598860825949305342e+00
4.600000000000022474e-03,-1.223672976750032907e-26,-3.280607167258108391e-26,3.792504541074880574e-03,-3.051961327427309798e-20,-2.189418218259258020e-19,2.539392619734478274e+00,1.895485495645903518e+00,2.191519347968712506e+00,0.000000000000000000e+00,0.000000000000000000e+00,0.000000000000000000e+00,4.816991173529919124e+00,-1.622173171943250392e+00
4.662500000000023397e-03,-9.583572506506364086e-27,-2.196027730824397327e-26,3.953736809213316376e-03,-3.530664339055836932e-20,-1.906956512440607546e-19,2.617916788738812617e+00,1.429275244326790206e+00,1.485833453721786546e+00,0.000000000000000000e+00,0.000000000000000000e+00,0.000000000000000000e+00,4.882433613320252164e+00,-1.629123486168849055e+00
4.712500000000023094e-03,-7.788744109151768810e-27,-1.568413282108462124e-26,4.086087615500344668e-03,-3.354884819215003107e-20,-1.684196327810406468e-19,2.675077397798019341e+00,1.131248641898735974e+00,7.582117848207722277e-01,0.000000000000000000e+00,0.000000000000000000e+00,0.000000000000000000e+00,4.934797829646055511e+00,-1.637651162054389653e+00
4.750000000000024168e-03,6.591253289023981631e-27,1.209388036656356129e-26,4.187205617356895906e-03,3.347657538413489148e-20,1.434091635802060332e-19,2.716681054512142701e+00,7.060826855693141946e-02,-2.153690672517774463e+00,0.000000000000000000e+00,0.000000000000000000e+00,0.000000000000000000e+00,4.974300841368717307e+00,-1.649087183135405699e+00
4.800000000000025600e-03,5.123440110432748424e-27,8.512291976488143761e-27,4.324499022281065759e-03,3.164875836131957724e-20,1.134361575943673315e-19,2.777118155283527567e+00,-7.751800774269956840e-01,-3.364568334124126370e+00,0.000000000000000000e+00,0.000000000000000000e+00,0.000000000000000000e+00,5.026643501433921912e+00,-1.669044413551484363e+00
4.862500000000026523e-03,3.620381672464615265e-27,5.439019848241480374e-27,4.500988860374841721e-03,2.780188880546682752e-20,8.705482256799152049e-20,2.872883487785304446e+00,-1.281961455378320736e+00,-2.898781729148720565e+00,0.000000000000000000e+00,0.000000000000000000e+00,0.000000000000000000e+00,5.092070479805089533e+00,-1.694375827541697577e+00
4.912500000000026221e-03,2.715047861720580194e-27,3.708897881711929551e-27,4.646567171418831271e-03,2.466414573089730669e-20,7.418314021047885299e-20,2.949120543841076802e+00,-1.572403754769724493e+00,-2.707814360240988982e+00,0.000000000000000000e+00,0.000000000000000000e+00,0.000000000000000000e+00,5.144415516668487065e+00,-1.712377169859906623e+00
4.962500000000025918e-03,2.023045120683305582e-27,2.439873645942222140e-27,4.795709053537963555e-03,2.160205176009072446e-20,6.269784126588277972e-20,3.015388122533594117e+00,-1.418922368825783931e+00,-2.349464182260734724e+00,0.000000000000000000e+00,0.000000000000000000e+00,0.000000000000000000e+00,5.196763579821558565e+00,-1.729376067078460588e+00
5.012500000000025616e-03,1.495990193432105640e-27,1.519187406235213827e-27,4.947948138790294118e-03,1.872161132355580136e-20,5.260558136016783801e-20,3.073328618046301308e+00,-9.086539625204885784e-01,-1.678376190355764574e+00,0.000000000000000000e+00,0.000000000000000000e+00,0.000000000000000000e+00,5.249114055023645697e+00,-1.746712878302087546e+00
5.062500000000025313e-03,1.096184209679680646e-27,8.602824989983243787e-28,5.102970847366735882e-03,1.608173530822410244e-20,4.384736395816929514e-20,3.127561607516055275e+00,-2.480669952541429413e-01,-7.895981080710959832e-01,0.000000000000000000e+00,0.000000000000000000e+00,0.000000000000000000e+00,5.301466452196166301e+00,-1.764118516033945205e+00
5.137500000000024859e-03,6.587110512668085538e-28,1.892382060380010862e-28,5.340830938574081706e-03,1.363486244352860477e-20,3.627747351263753906e-20,3.217296660825827104e+00,6.852631259878949610e-01,1.979937580408991371e-01,0.000000000000000000e+00,0.000000000000000000e+00,0.000000000000000000e+00,5.379997643291845044e+00,-1.790326182229523555e+00
5.162500000000024708e-03,-5.420517898329378857e-28,-1.836717948776916583e-29,5.421693698747839102e-03,-1.253109014779980649e-20,-3.291224193323970046e-20,3.251977465564674041e+00,9.476047814555027538e-01,4.096280480245149680e-01,0.000000000000000000e+00,0.000000000000000000e+00,0.000000000000000000e+00,5.406139505245947774e+00,-1.799173196420726484e+00
5.212500000000024405e-03,-3.567851365470127349e-28,2.312770582481296256e-28,5.586192259403971634e-03,-1.053131704366636672e-20,-2.696570916305710734e-20,3.329141770523142529e+00,1.653213153061324991e+00,7.185771809599944548e-01,0.000000000000000000e+00,0.000000000000000000e+00,0.000000000000000000e+00,5.458503339913098884e+00,-1.816742460117910296e+00
5.262500000000024103e-03,-2.223517418967794630e-28,3.867195408239284642e-28,5.754691845210564011e-03,-8.796314586117848848e-21,-2.196276597020148404e-20,3.410739830954534924e+00,2.003826648262645005e+00,7.904722615433185107e-01,0.000000000000000000e+00,0.000000000000000000e+00,0.000000000000000000e+00,5.510866315366055979e+00,-1.834478326505118995e+00
5.312500000000023800e-03,-1.261230937842921660e-28,4.747447782181464945e-28,5.927232824656613122e-03,-7.305788186452782984e-21,-1.778383072718778315e-20,3.490391159016579703e+00,1.959634839223775682e+00,6.904400877032178530e-01,0.000000000000000000e+00,0.000000000000000000e+00,0.000000000000000000e+00,5.563228615254019793e+00,-1.852008066028557165e+00
5.362500000000023498e-03,-5.843443407206106302e-29,5.153598499788155885e-28,6.103612229741939461e-03,-6.036052954226117715e-21,-1.431607985124350446e-20,3.563872853461006684e+00,1.749325694636298945e+00,5.389547990378105169e-01,0.000000000000000000e+00,0.000000000000000000e+00,0.000000000000000000e+00,5.615590384458525541e+00,-1.869279242036840483e+00
5.400000000000023705e-03,1.094679892262588373e-29,6.103261488014015388e-28,6.237706700095628151e-03,-5.058627600931306672e-21,-1.161542067808724713e-20,3.614436916629421681e+00,1.425723382485595270e+00,3.350582773105167944e-01,0.000000000000000000e+00,0.000000000000000000e+00,0.000000000000000000e+00,5.654853735397125547e+00,-1.882424557536594989e+00
5.450000000000025137e-03,1.136539857360461675e-28,7.675989272306724575e-28,6.420168476932865131e-03,-3.489338050510659895e-21,-7.244020460529874227e-21,3.677623768755386990e+00,1.229769366581230594e+00,9.445790040667444154e-02,0.000000000000000000e+00,0.000000000000000000e+00,0.000000000000000000e+00,5.707197336718490277e+00,-1.899655577498480019e+00
5.500000000000026569e-03,1.444245220921886750e-28,7.445179178475074187e-28,6.605697012158521370e-03,-2.221807601550123421e-21,-3.887138446047429458e-21,3.742592415522251859e+00,1.040729507774211804e+00,-8.509549707867325452e-02,0.000000000000000000e+00,0.000000000000000000e+00,0.000000000000000000e+00,5.759553675167002673e+00,-1.916868044567499041e+00
5.562500000000026625e-03,-1.440272370335776398e-28,-6.384204893518709990e-28,6.842432357290023810e-03,1.542629213643004934e-21,2.291520338394531266e-21,3.833863898224503242e+00,9.739047532235325377e-01,-2.926108268310098071e-01,0.000000000000000000e+00,0.000000000000000000e+00,0.000000000000000000e+00,5.825067162613885685e+00,-1.938528049513718710e+00
5.612500000000026322e-03,-1.377305496142899558e-28,-5.590490990487106148e-28,7.036093050880902998e-03,1.200099913025311191e-21,1.574885963425465817e-21,3.913466992785188836e+00,8.601798380554935841e-01,-2.931185605144716044e-01,0.000000000000000000e+00,0.000000000000000000e+00,0.000000000000000000e+00,5.877424714105300652e+00,-1.955943795515467265e+00
5.662500000000026019e-03,-1.286272201574183432e-28,-4.867918573951471671e-28,7.233816342336619673e-03,9.210905894118280107e-22,1.026052653905842907e-21,3.995483430318068852e+00,7.486863723028182038e-01,-7.299351543606411030e-02,0.000000000000000000e+00,0.000000000000000000e+00,0.000000000000000000e+00,5.929782038196735883e+00,-1.973641602460133093e+00
5.712500000000025717e-03,-1.180110830530822689e-28,-4.218106950942798483e-28,7.435561533804697747e-03,6.959098853903563473e-22,6.112677673377451525e-22,4.073577794972520039e+00,7.933235461283407730e-01,6.778095791730667785e-02,0.000000000000000000e+00,0.000000000000000000e+00,0.000000000000000000e+00,5.982139305272506036e+00,-1.991153612983178389e+00
5.762500000000025414e-03,-1.067856354007109745e-28,-3.639491884157773129e-28,7.641025855227934552e-03,5.158607122371903465e-22,3.027602072367460145e-22,4.144035350993924283e+00,1.023987987448890413e+00,2.058777395222481932e-01,0.000000000000000000e+00,0.000000000000000000e+00,0.000000000000000000e+00,6.034496629178272009e+00,-2.008478778277404064e+00
5.812500000000025112e-03,9.603942881251641377e-29,3.130333695251700822e-28,7.849854510146480474e-03,-4.488085274622756218e-22,-2.099976280918353643e-22,4.209095038185223459e+00,1.181557240137581122e+00,2.623625826842101993e-01,0.000000000000000000e+00,0.000000000000000000e+00,0.000000000000000000e+00,6.086817385306139805e+00,-2.025854525535563333e+00
5.862500000000024809e-03,-8.637460718795273034e-29,-2.686612225285264720e-28,8.061932521872990087e-03,3.900179401807062475e-22,1.348567806708745278e-22,4.274037488227711457e+00,1.266257136349262957e+00,2.572104569052667267e-01,0.000000000000000000e+00,0.000000000000000000e+00,0.000000000000000000e+00,6.139211930003064310e+00,-2.043333888984027347e+00
5.912500000000024507e-03,7.768235560017751809e-29,2.300331712359599274e-28,8.277393315453782097e-03,-3.385061759755730934e-22,-7.453126262379898205e-23,4.344359745316721089e+00,1.274139714413176971e+00,2.198236204720589726e-01,0.000000000000000000e+00,0.000000000000000000e+00,0.000000000000000000e+00,6.191541095076072310e+00,-2.060874601369424575e+00
5.962500000000024204e-03,-6.986480825807706563e-29,-1.964441179766215140e-28,8.496580107888309502e-03,2.934044970149698834e-22,2.662070293300355959e-23,4.423096787887244474e+00,1.224755288148611676e+00,1.633291888839928652e-01,0.000000000000000000e+00,0.000000000000000000e+00,0.000000000000000000e+00,6.243928174731016689e+00,-2.078633410465367870e+00
6.012500000000023902e-03,6.283394682839498778e-29,1.672725436567910029e-28,8.719855958521429209e-03,-2.539452127115568663e-22,1.092447714763204274e-23,4.507919149570600581e+00,1.126630736987754622e+00,6.182953115881974215e-02,0.000000000000000000e+00,0.000000000000000000e+00,0.000000000000000000e+00,6.296263965633916548e+00,-2.096126247344810345e+00
6.062500000000023599e-03,-5.651060960206813546e-29,-1.419708430211598566e-28,8.947398242469591784e-03,2.194501488610993762e-22,-3.985110597304615455e-23,4.593780392444901217e+00,1.034835969021042246e+00,-4.175526486655807383e-03,0.000000000000000000e+00,0.000000000000000000e+00,0.000000000000000000e+00,6.348645165479099184e+00,-2.113322411733065564e+00
6.112500000000023297e-03,5.082360035272357276e-29,1.200567570760870189e-28,9.179117464537133245e-03,-1.893204133599077815e-22,6.164501422032412730e-23,4.675004724368955422e+00,9.788534235712187392e-01,-3.954306190779282443e-02,0.000000000000000000e+00,0.000000000000000000e+00,0.000000000000000000e+00,6.400986173117341416e+00,-2.130584644253684434e+00
6.162500000000022994e-03,-4.570888685722771634e-29,-1.011057798898172691e-28,9.414703602123148177e-03,1.630273144061227891e-22,-7.756729472101136967e-23,4.748466115701069690e+00,9.537074228747169924e-01,-5.800347947955932643e-02,0.000000000000000000e+00,0.000000000000000000e+00,0.000000000000000000e+00,6.453362745485109464e+00,-2.147985512162093880e+00
6.212500000000022692e-03,4.110888005730359235e-29,8.474443057004072694e-29,9.653820959455827744e-03,-1.401043029517979974e-22,8.868576744570782019e-23,4.816236978376325695e+00,9.548850087375704287e-01,-6.966593639511310665e-02,0.000000000000000000e+00,0.000000000000000000e+00,0.000000000000000000e+00,6.505707857027065444e+00,-2.165539018392306669e+00
6.262500000000022389e-03,-3.697178574879136713e-29,-7.064429331532104316e-29,9.896316475540787791e-03,1.201398253024194321e-22,-9.590226129797572536e-23,4.883579314826661744e+00,9.612064439208154454e-01,-6.856730917013206805e-02,0.000000000000000000e+00,0.000000000000000000e+00,0.000000000000000000e+00,6.558080790624438272e+00,-2.183086549851097402e+00
6.312500000000022086e-03,3.325102150140862923e-29,5.851673920584495277e-29,1.014230649414686082e-02,-1.027709843457713574e-22,9.997624846307809955e-23,4.956000293471365836e+00,9.734883351285105180e-01,-1.078626925771633688e-01,0.000000000000000000e+00,0.000000000000000000e+00,0.000000000000000000e+00,6.610429127791284110e+00,-2.200536265913664913e+00
6.412500000000022349e-03,-2.672461809812785585e-29,-3.799235046040650720e-29,1.064613777961703235e-02,8.899831725989202289e-23,-9.922160067653633139e-23,5.120201646978764565e+00,1.028835629199182033e+00,-2.460348444464182105e-01,0.000000000000000000e+00,0.000000000000000000e+00,0.000000000000000000e+00,6.715158476341415827e+00,-2.235207593112114477e+00
6.512500000000022611e-03,2.117098516048910579e-29,2.098767207199718037e-29,1.116661844637914340e-02,-7.718360771116471816e-23,9.655874995486842590e-23,5.289694565373611823e+00,1.059818115407557215e+00,-1.903746847819917098e-01,0.000000000000000000e+00,0.000000000000000000e+00,0.000000000000000000e+00,6.819870914891438041e+00,-2.270261899092867797e+00
6.612500000000022873e-03,-1.646083262939674283e-29,-7.004005856665509226e-30,1.170312493231810344e-02,6.704987746727247356e-23,-9.248282036388519033e-23,5.440319701070456482e+00,1.186274025438641466e+00,-1.927910676621054087e-01,0.000000000000000000e+00,0.000000000000000000e+00,0.000000000000000000e+00,6.924596069157662903e+00,-2.305394317652595948e+00
6.712500000000023136e-03,1.248100075291796387e-29,-4.392803836319049186e-30,1.225414696985784556e-02,-5.835827570647433209e-23,8.739839948548576939e-23,5.580256157067088552e+00,1.116927989829185508e+00,-8.108367109932518302e-02,0.000000000000000000e+00,0.000000000000000000e+00,0.000000000000000000e+00,7.029312032234819263e+00,-2.340142145865614864e+00
6.812500000000023398e-03,-9.132526925440880221e-30,1.358029164927442946e-29,1.281996347376131162e-02,5.090299218387065227e-23,-8.163375384375858069e-23,5.735900503744864487e+00,1.083407357366199975e+00,-8.838511201262508332e-02,0.000000000000000000e+00,0.000000000000000000e+00,0.000000000000000000e+00,7.134034239722284454e+00,-2.374709952359440823e+00
6.912500000000023660e-03,6.328937855930046783e-30,-2.088635386127502255e-29,1.340221515436172683e-02,-4.450682960377858878e-23,7.545300067376353406e-23,5.909174875717093656e+00,9.869528928970834336e-01,-8.845425606910781169e-02,0.000000000000000000e+00,0.000000000000000000e+00,0.000000000000000000e+00,7.238752652134362364e+00,-2.409486915095283344e+00
7.012500000000023923e-03,-3.994741331067137494e-30,2.659540071438327054e-29,1.400134783139213648e-02,3.901735191381260668e-23,-6.906651320382944397e-23,6.073491150271322248e+00,9.920293188243975990e-01,-5.695027569786632188e-02,0.000000000000000000e+00,0.000000000000000000e+00,0.000000000000000000e+00,7.343472837709778211e+00,-2.444638984028188133e+00
7.112500000000024185e-03,2.064094732617416577e-30,-3.095377465825665593e-29,1.461593686698124672e-02,-3.430353553246509017e-23,6.263980056527458821e-23,6.218373466680044537e+00,9.985327885865119546e-01,-4.552048094545853990e-02,0.000000000000000000e+00,0.000000000000000000e+00,0.000000000000000000e+00,7.448192905602099678e+00,-2.479672430615584844e+00
7.212500000000024447e-03,-4.796300405469880127e-31,3.417451980621152062e-29,1.524516149547585318e-02,3.025285956851051751e-23,-5.630107193217375632e-23,6.366044736993822006e+00,9.895172882605687281e-01,-5.354718666833069296e-02,0.000000000000000000e+00,0.000000000000000000e+00,0.000000000000000000e+00,7.552911749061897773e+00,-2.514464214035768919e+00
7.312500000000024709e-03,-8.085826604355140069e-31,-3.644157817799296172e-29,1.589027533875215711e-02,-2.676877903655288962e-23,5.014766696889900735e-23,6.536178735884457858e+00,9.071321277106633163e-01,-1.156438107057054243e-01,0.000000000000000000e+00,0.000000000000000000e+00,0.000000000000000000e+00,7.657632891823602961e+00,-2.549319749877626329e+00
7.318750000000024888e-03,6.800174668038636072e-31,3.655561512682470696e-29,1.593045784486122468e-02,2.528702819118239619e-23,-2.360043092306582648e-23,6.547651055756818828e+00,6.981465139850042689e-01,-2.577819168970265085e-01,0.000000000000000000e+00,0.000000000000000000e+00,0.000000000000000000e+00,7.664170017703555438e+00,-2.551465729197939680e+00
7.362500000000026142e-03,-1.655237173020583670e-31,-3.006716773808437578e-29,1.621903682750594836e-02,-1.527601467315118974e-23,-1.254069141787240457e-22,6.629847880024287043e+00,6.740600510262335643e-01,-2.664932855685285262e-01,0.000000000000000000e+00,0.000000000000000000e+00,0.000000000000000000e+00,7.710016578643704932e+00,-2.566615782140548863e+00
7.412500000000027574e-03,-3.246825989888824877e-32,1.995131296686293010e-29,1.655285456882432324e-02,9.753956750332710622e-24,1.474901852780941090e-22,6.724953556045938363e+00,7.971598478612639260e-01,-1.753821546469409853e-01,0.000000000000000000e+00,0.000000000000000000e+00,0.000000000000000000e+00,7.762328725438742971e+00,-2.583741489946942860e+00
7.462500000000029006e-03,-1.116348584186164600e-31,1.315487971007080576e-29,1.689135886978342105e-02,6.505074851383047018e-24,1.302569866184974713e-22,6.813442527978082808e+00,9.296838378737176667e-01,-8.456854620948504875e-02,0.000000000000000000e+00,0.000000000000000000e+00,0.000000000000000000e+00,7.814692172080925481e+00,-2.601148643500367452e+00
7.525000000000029929e-03,-1.349042656932600951e-31,7.769671568021918079e-30,1.732037479502392119e-02,4.205827078109477536e-24,1.060138194230657842e-22,6.913910718839308522e+00,1.031929537479239656e+00,-4.017861188475751327e-02,0.000000000000000000e+00,0.000000000000000000e+00,0.000000000000000000e+00,7.880146730913017983e+00,-2.623313653915387622e+00
7.562500000000031003e-03,3.884364702828013038e-31,-2.233529190339361220e-30,1.757788289906146717e-02,-3.484216135112871515e-24,-9.537369463037407061e-23,6.972727123818549089e+00,1.062572993476120997e+00,-3.370913140111509582e-02,0.000000000000000000e+00,0.000000000000000000e+00,0.000000000000000000e+00,7.919371168288815710e+00,-2.636472703130455564e+00
7.612500000000032435e-03,5.086250029187855246e-31,1.535636595846707574e-30,1.792913961239363252e-02,-2.081779806941820865e-24,-7.165844420977372214e-23,7.055674376313881169e+00,1.060765711283593760e+00,-3.819996182084829661e-02,0.000000000000000000e+00,0.000000000000000000e+00,0.000000000000000000e+00,7.971689560795256035e+00,-2.654137326670058084e+00
7.675000000000033358e-03,4.934274395129868064e-31,3.206542416942408127e-30,1.837363668032552730e-02,-8.853823432555228860e-25,-4.835878737322795816e-23,7.169319360382430339e+00,1.040743467731146454e+00,-4.344047150428857057e-02,0.000000000000000000e+00,0.000000000000000000e+00,0.000000000000000000e+00,8.037133664530340837e+00,-2.675922046471129967e+00
7.725000000000033056e-03,4.561231812042235436e-31,3.767371993695372895e-30,1.873453939318135697e-02,-5.288191893667881824e-25,-3.891665647546447994e-23,7.264513994751111703e+00,1.025882639489016368e+00,-4.479166600925645753e-02,0.000000000000000000e+00,0.000000000000000000e+00,0.000000000000000000e+00,8.089497562153839638e+00,-2.693273075655447713e+00
7.775000000000032753e-03,4.151818104863711865e-31,3.999330150030578128e-30,1.910012698426495972e-02,-2.464443454709201105e-25,-3.070853253562887015e-23,7.357053487406277625e+00,1.018673582098083230e+00,-4.433076322289387916e-02,0.000000000000000000e+00,0.000000000000000000e+00,0.000000000000000000e+00,8.141863814379201258e+00,-2.710681329198182166e+00
7.825000000000033318e-03,3.733321137998304644e-31,4.007142077985973338e-30,1.947016311749271561e-02,-2.851342693590256283e-26,-2.372192144133748652e-23,7.443092661805537524e+00,1.026102442849994523e+00,-3.907339801077419628e-02,0.000000000000000000e+00,0.000000000000000000e+00,0.000000000000000000e+00,8.194231381334851960e+00,-2.728173712707493870e+00
7.875000000000034750e-03,3.323972384956172415e-31,3.867609654902226843e-30,1.984451270866591580e-02,1.347525789276696831e-25,-1.788257134654946598e-23,7.531647511157311570e+00,5.298196037308507966e-01,-2.285082974769619968e-01,0.000000000000000000e+00,0.000000000000000000e+00,0.000000000000000000e+00,8.246599533296292250e+00,-2.745519455097831685e+00
7.950000000000035164e-03,2.759872200910628412e-31,3.531017049191388445e-30,2.041470827074828159e-02,2.277699177580039055e-25,-1.338123602937824892e-23,7.674147518218159547e+00,6.783232218074511932e-01,-7.269078976654688717e-02,0.000000000000000000e+00,0.000000000000000000e+00,0.000000000000000000e+00,8.325151490562758383e+00,-2.770577526703016602e+00
8.000000000000034861e-03,-2.435250558077857838e-31,-3.309688193723885816e-30,2.080088178873110150e-02,-2.481720790471037514e-25,1.162336619355684302e-23,7.772239725256060439e+00,8.538748839701967297e-01,-2.245889368258961738e-02,0.000000000000000000e+00,0.000000000000000000e+00,0.000000000000000000e+00,8.377642322919921725e+00,-2.787744210649514720e+00
8.050000000000034558e-03,2.147954521802534403e-31,3.097314938857975336e-30,2.119202563615019824e-02,2.615138279434049879e-25,-1.006422996514280590e-23,7.873899629070887585e+00,9.562075973147048380e-01,-3.486461287375799273e-02,0.000000000000000000e+00,0.000000000000000000e+00,0.000000000000000000e+00,8.429884766682398833e+00,-2.805673393006431038e+00
8.100000000000034256e-03,-1.893765187201506920e-31,-2.894319453027994866e-30,2.158831870301311517e-02,-2.690734534104254605e-25,8.683562120959170253e-24,7.977533268959309254e+00,9.849610850561513198e-01,-6.107703848242385103e-02,0.000000000000000000e+00,0.000000000000000000e+00,0.000000000000000000e+00,8.482349951691491086e+00,-2.823875752490386581e+00
8.150000000000033953e-03,1.668934174302654121e-31,2.700949914975425456e-30,2.198972414128740061e-02,2.719371679323977937e-25,-7.462972866395616385e-24,8.078905827120649974e+00,9.603476629372679207e-01,-7.704514253836204640e-02,0.000000000000000000e+00,0.000000000000000000e+00,0.000000000000000000e+00,8.534615397218717092e+00,-2.841734571720363700e+00
8.200000000000033651e-03,-1.470131712111553938e-31,-2.517311090003089220e-30,2.239604834044861201e-02,-2.710254422017209528e-25,6.385794429926408645e-24,8.173931369563341320e+00,9.452189141069843314e-01,-7.290085460662543149e-02,0.000000000000000000e+00,0.000000000000000000e+00,0.000000000000000000e+00,8.587059953402825130e+00,-2.859061029388428654e+00
8.250000000000033348e-03,1.294400400615641657e-31,2.343390530875453537e-30,2.280693699364539848e-02,2.671159234054379509e-25,-5.436937681639105170e-24,8.261744373345637271e+00,1.032281774510477979e+00,-7.712233703685761332e-02,0.000000000000000000e+00,0.000000000000000000e+00,0.000000000000000000e+00,8.639343899385615089e+00,-2.879057695352120305e+00
8.300000000000033046e-03,-1.139114034297805335e-31,-2.179080972673329610e-30,2.322206263858191469e-02,-2.608633640674639582e-25,4.602758495306741560e-24,8.343217493007021091e+00,1.108231856909960289e+00,-7.507081321049691169e-02,0.000000000000000000e+00,0.000000000000000000e+00,0.000000000000000000e+00,8.691771864098893019e+00,-2.899878836438307239e+00
8.350000000000032743e-03,1.001940937237380830e-31,2.024199420802876953e-30,2.364126145396475837e-02,2.528169364724625111e-25,-3.870933510361481502e-24,8.424781184301069814e+00,9.971624029738317407e-01,-4.654362576367768178e-02,0.000000000000000000e+00,0.000000000000000000e+00,0.000000000000000000e+00,8.744070689359777049e+00,-2.916786859724405989e+00
8.400000000000032441e-03,-8.808113192460599646e-32,-1.878503369579777176e-30,2.406471110068997624e-02,-2.434352619553025877e-25,3.230344904295516749e-24,8.513138678839787588e+00,8.906232190952693140e-01,-4.163804605499635964e-02,0.000000000000000000e+00,0.000000000000000000e+00,0.000000000000000000e+00,8.796485310463438623e+00,-2.930471371181088358e+00
8.450000000000032138e-03,7.019987343698178630e-32,2.292146176518867167e-30,2.447519569399767350e-02,2.380166980072265440e-25,-3.047475837534704663e-24,8.609009146873741969e+00,9.243393553604730695e-01,-2.519121189028646762e-02,0.000000000000000000e+00,0.000000000000000000e+00,0.000000000000000000e+00,8.848681079958106821e+00,-2.944013890073025053e+00
8.500000000000031836e-03,-5.501405532763686432e-32,-2.604275388374333105e-30,2.492092838299430485e-02,-2.299373325848134311e-25,2.782021525099599185e-24,8.709176693964218785e+00,1.017286499761384855e+00,-2.705609822065589698e-02,0.000000000000000000e+00,0.000000000000000000e+00,0.000000000000000000e+00,8.901407031812544446e+00,-2.961160316494936495e+00
8.550000000000031533e-03,4.216340210579079577e-32,2.831057296093515510e-30,2.534956266288485027e-02,2.199145276901750590e-25,-2.461013267788033417e-24,8.807926173236488410e+00,1.084168371046664525e+00,-3.163617002305161435e-02,0.000000000000000000e+00,0.000000000000000000e+00,0.000000000000000000e+00,8.953240903175048615e+00,-2.979793635749028002e+00
8.600000000000031231e-03,-3.133273897503800417e-32,-2.986440068385119255e-30,2.579903603945899945e-02,-2.085356795204499092e-25,2.106033402599992382e-24,8.900687235837970945e+00,1.087180608787438496e+00,-3.736587962300641497e-02,0.000000000000000000e+00,0.000000000000000000e+00,0.000000000000000000e+00,9.006251071712018330e+00,-2.999375150174193649e+00
8.650000000000030928e-03,2.224657444937741907e-32,3.082435713257468733e-30,2.624129302047311166e-02,1.962783478106108023e-25,-1.734121638091669605e-24,8.986224136560947429e+00,1.046861830754922451e+00,-4.090129739329842473e-02,0.000000000000000000e+00,0.000000000000000000e+00,0.000000000000000000e+00,9.057866490532278547e+00,-3.017488557743635891e+00
8.700000000000030626e-03,-1.466431543909872147e-32,-3.129367828471495514e-30,2.669620842395098795e-02,-1.835275285945999315e-25,1.358545926747409831e-24,9.067407645391812210e+00,1.004099169741010877e+00,-2.597392009373315769e-02,0.000000000000000000e+00,0.000000000000000000e+00,0.000000000000000000e+00,9.111039658131678820e+00,-3.034595808450804011e+00
8.750000000000030323e-03,8.376042486381585283e-33,3.136089163510144508e-30,2.714902915770496528e-02,1.705904523619156131e-25,-9.894567721503371647e-25,9.149406427329843439e+00,9.983167471283006522e-01,-1.472821317501105988e-02,0.000000000000000000e+00,0.000000000000000000e+00,0.000000000000000000e+00,9.162538625200001619e+00,-3.050974660993988063e+00
8.800000000000030020e-03,-3.198780969817249026e-33,-3.110172553256347781e-30,2.761048070759935733e-02,-1.577092424777798370e-25,6.344413569785930967e-25,9.233022577071144710e+00,5.144750480858316655e-01,-5.088514033496426697e-03,0.000000000000000000e+00,0.000000000000000000e+00,0.000000000000000000e+00,9.215789376712081094e+00,-3.048072428062750472e+00
8.850000000000029718e-03,-1.026788668298148566e-33,3.058078373418208586e-30,2.807334369601038881e-02,1.450717237806406854e-25,-2.989916881156504956e-25,9.336408180591106998e+00,1.714844345671967973e+00,1.564491782260506725e-01,0.000000000000000000e+00,0.000000000000000000e+00,0.000000000000000000e+00,9.267243018655722864e+00,-3.093391770632090143e+00
8.875000000000030434e-03,7.197335314191879171e-33,-3.078981575617045057e-30,2.829731176522884764e-02,-1.388497971980424657e-25,-1.671398130251960282e-25,9.381111639807173219e+00,1.584914551845789443e+00,-5.202532240672288477e-01,0.000000000000000000e+00,0.000000000000000000e+00,0.000000000000000000e+00,9.294269935513350234e+00,-3.104368925499828791e+00
8.925000000000031866e-03,1.599246693510694578e-32,-3.023246960305671271e-30,2.877070620930802583e-02,-1.209988240258546298e-25,-1.096835827123303346e-24,9.477651081710746439e+00,1.040190963195903651e+00,-4.694477870949886195e-02,0.000000000000000000e+00,0.000000000000000000e+00,0.000000000000000000e+00,9.346526058076655374e+00,-3.114649854137071738e+00
8.975000000000033298e-03,2.118562473523214463e-32,-2.877540263932842652e-30,2.924799087398090303e-02,-9.963580424547600217e-26,-1.942350304829397609e-24,9.571403821729944639e+00,1.030430571395177131e+00,3.938596203111069394e-02,0.000000000000000000e+00,0.000000000000000000e+00,0.000000000000000000e+00,9.398807468301114909e+00,-3.132997759883810573e+00
9.025000000000034731e-03,2.382805451495219586e-32,-2.678062896914655887e-30,2.972927832455719496e-02,-7.774349406349607057e-26,-2.649834231582641310e-24,9.657388646104022811e+00,1.006325556557843948e+00,6.163433898647151243e-02,0.000000000000000000e+00,0.000000000000000000e+00,0.000000000000000000e+00,9.451108302430254682e+00,-3.150172153220945237e+00
9.075000000000036163e-03,2.470155992543691810e-32,-2.450507725835403108e-30,3.021445327883023890e-02,-5.710727312014441031e-26,-3.198872606552412569e-24,9.737603216347025636e+00,9.813858902033488762e-01,4.878726210900264509e-02,0.000000000000000000e+00,0.000000000000000000e+00,0.000000000000000000e+00,9.503424012050084357e+00,-3.167629204698890533e+00
9.150000000000036576e-03,2.422740989539874143e-32,-2.105119551942646302e-30,3.094901086532259385e-02,-4.065734154562645686e-26,-3.404626362204412260e-24,9.858133009876778985e+00,8.215131949739795658e-01,-4.367338830214451129e-03,0.000000000000000000e+00,0.000000000000000000e+00,0.000000000000000000e+00,9.581916283654008382e+00,-3.193779275061083389e+00
9.200000000000036274e-03,-2.363329598851961148e-32,1.900269675295321021e-30,3.144466848570841994e-02,3.434395144382700249e-26,3.364270127626688384e-24,9.944211199941570101e+00,9.809159323160943078e-01,-7.181457037779868935e-02,0.000000000000000000e+00,0.000000000000000000e+00,0.000000000000000000e+00,9.634183590848667933e+00,-3.211280705452606909e+00
9.250000000000035971e-03,2.291573076406222172e-32,-1.715338578458027929e-30,3.194374851007051458e-02,-2.862261220711716252e-26,-3.298756480486354090e-24,1.003638649677507999e+01,9.868856220173656268e-01,2.239062923063545388e-02,0.000000000000000000e+00,0.000000000000000000e+00,0.000000000000000000e+00,9.686590793790326614e+00,-3.228667325846497071e+00
9.300000000000035669e-03,-2.210534562461113454e-32,1.548391004235249673e-30,3.244827119083735362e-02,2.346445294065364363e-26,3.213438705227377831e-24,1.013185282570948331e+01,1.074973290525415903e+00,-8.833863617635422799e-03,0.000000000000000000e+00,0.000000000000000000e+00,0.000000000000000000e+00,9.738940467658684597e+00,-3.246182935372781575e+00
9.350000000000035366e-03,2.122788020540964778e-32,-1.397679559072446239e-30,3.295695739216125686e-02,-1.883781587729959996e-26,-3.112859179571931227e-24,1.022482020806624448e+01,1.100121421430530599e+00,4.130414532244123388e-02,0.000000000000000000e+00,0.000000000000000000e+00,0.000000000000000000e+00,9.791280378304113796e+00,-3.263583316264459633e+00
9.400000000000035064e-03,-2.030485441380237908e-32,1.261626492899845454e-30,3.347052718683529021e-02,1.470936652286383052e-26,3.000857205416267960e-24,1.031129357378563860e+01,1.155067485411810146e+00,6.205761465464046389e-03,0.000000000000000000e+00,0.000000000000000000e+00,0.000000000000000000e+00,9.843684461299494259e+00,-3.281084429903247557e+00
9.450000000000034761e-03,1.935415497846245220e-32,-1.138807244371048892e-30,3.398795723859263790e-02,-1.104498322251442444e-26,-2.880663464374884667e-24,1.039079856898298715e+01,1.133316482612739318e+00,1.947996833106966849e-02,0.000000000000000000e+00,0.000000000000000000e+00,0.000000000000000000e+00,9.895980942276146664e+00,-3.298501530805032722e+00
9.500000000000034459e-03,-1.839054688605248710e-32,1.027935580619009311e-30,3.450949707255866750e-02,7.810461825072587792e-27,2.754982686558611893e-24,1.046725296946008399e+01,1.124570730984209010e+00,-1.900402996538354912e-03,0.000000000000000000e+00,0.000000000000000000e+00,0.000000000000000000e+00,9.948419127282702945e+00,-3.315990426294506577e+00
9.550000000000034156e-03,1.742611886233991705e-32,-9.278501771736701111e-31,3.503476108753590668e-02,-4.972065891829279972e-27,-2.626065938025745713e-24,1.054587313634603696e+01,1.086550989407397028e+00,6.285647926717542223e-03,0.000000000000000000e+00,0.000000000000000000e+00,0.000000000000000000e+00,1.000068940267068029e+01,-3.333414488912391338e+00
9.600000000000033853e-03,-1.647067097450931347e-32,8.375024986112046806e-31,3.556421716238482300e-02,2.496948442644759972e-27,2.495773769861393770e-24,1.063047541201429169e+01,1.084869273096498832e+00,1.458191539233022124e-03,0.000000000000000000e+00,0.000000000000000000e+00,0.000000000000000000e+00,1.005314713510859903e+01,-3.350894290789226737e+00
9.650000000000033551e-03,1.553205147562142816e-32,-7.559458539894906727e-31,3.609796401398904231e-02,-3.534673485758341269e-28,-2.365631327724439723e-24,1.072074929389816411e+01,1.079112471248367289e+00,4.934431512712988792e-03,0.000000000000000000e+00,0.000000000000000000e+00,0.000000000000000000e+00,1.010540345164678655e+01,-3.368323782552054002e+00
9.700000000000033248e-03,-1.461644916676601596e-32,6.823255133060078977e-31,3.663633107451495091e-02,-1.488586839078278830e-27,2.236876392913581413e-24,1.081294166286942371e+01,1.092980844823697506e+00,3.012969176123874489e-03,0.000000000000000000e+00,0.000000000000000000e+00,0.000000000000000000e+00,1.015787047659448561e+01,-3.385799347519106828e+00
9.750000000000032946e-03,1.372864680492549233e-32,-6.158697822193230016e-31,3.717918093625825066e-02,3.057834707922596576e-27,-2.110501212725243030e-24,1.090178987254710385e+01,1.090617747495441270e+00,-4.143942448175074161e-04,0.000000000000000000e+00,0.000000000000000000e+00,0.000000000000000000e+00,1.021012137328372305e+01,-3.403235320204691217e+00
9.800000000000032643e-03,-1.287224042378540975e-32,5.558819422169188382e-31,3.772633635283475367e-02,-4.381209995396031186e-27,1.987288877489274554e-24,1.098392287293060399e+01,1.090258483034608705e+00,-5.242372137580872827e-04,0.000000000000000000e+00,0.000000000000000000e+00,0.000000000000000000e+00,1.026259062702607672e+01,-3.420706987019088263e+00
9.850000000000032341e-03,1.204982885082409830e-32,-5.017329723928072749e-31,3.827741482129844858e-02,5.483908453178765711e-27,-1.867844912732703951e-24,1.105961317742819894e+01,1.077854086190938254e+00,-5.728796422559806131e-03,0.000000000000000000e+00,0.000000000000000000e+00,0.000000000000000000e+00,1.031484190196288431e+01,-3.438145871811347565e+00
9.900000000000032038e-03,-1.126317718821718556e-32,4.528549771113436519e-31,3.883223192910024990e-02,-6.389374036914152911e-27,1.752624676156067763e-24,1.113279418679613286e+01,1.079258580617286967e+00,-2.517966208444288260e-03,0.000000000000000000e+00,0.000000000000000000e+00,0.000000000000000000e+00,1.036730866953634234e+01,-3.455613746765191951e+00
9.950000000000031736e-03,1.051335756962374672e-32,-4.087352511622446966e-31,3.939075821202383393e-02,7.119314445086498898e-27,-1.641957079370597646e-24,1.120844672128457908e+01,1.148247754153872258e+00,-2.211900532143737039e-02,0.000000000000000000e+00,0.000000000000000000e+00,0.000000000000000000e+00,1.041956411319592490e+01,-3.473057367177985633e+00
1.005000000000003113e-02,-9.140949423957658667e-33,3.311302663572736077e-31,4.051993844308807852e-02,-7.276255247015716456e-27,1.519834215778677649e-24,1.137458705953788396e+01,1.150949748040682508e+00,-4.082915633157522400e-03,0.000000000000000000e+00,0.000000000000000000e+00,0.000000000000000000e+00,1.052438388372036115e+01,-3.507978042086255410e+00
1.015000000000003053e-02,7.937889331728371684e-33,-2.649589260016760571e-31,4.166601172030352102e-02,7.307433387825434888e-27,-1.403064342721389962e-24,1.154726237364374697e+01,1.140186423899301360e+00,-1.066247087182339154e-02,0.000000000000000000e+00,0.000000000000000000e+00,0.000000000000000000e+00,1.062900958727547973e+01,-3.542872730917640212e+00
1.025000000000002992e-02,-6.884031763753169029e-33,2.087105510536764275e-31,4.282847910785930745e-02,-7.238750128961449231e-27,1.292063291866715751e-24,1.170189252605093877e+01,1.013959698758371664e+00,-4.195823061534950313e-03,0.000000000000000000e+00,0.000000000000000000e+00,0.000000000000000000e+00,1.073381762273333173e+01,-3.577788136083711379e+00
1.035000000000002932e-02,5.961566816067760000e-33,-1.610622618352697990e-31,4.400595291160903227e-02,7.091952292396306765e-27,-1.187083678529793162e-24,1.184776570392223860e+01,1.337682597392379158e+00,6.901763318709093833e-03,0.000000000000000000e+00,0.000000000000000000e+00,0.000000000000000000e+00,1.083845465501175553e+01,-3.612696207847784891e+00
1.045000000000002871e-02,-5.154754540243777147e-33,1.208565249499646227e-31,4.519779122807584398e-02,-6.885227316980610392e-27,1.088246038638201657e-24,1.198889086684100391e+01,9.578020555920236934e-01,-3.057305998222538054e-02,0.000000000000000000e+00,0.000000000000000000e+00,0.000000000000000000e+00,1.094325180417173549e+01,-3.647614925515633377e+00
1.055000000000002811e-02,4.449689051421510592e-33,-8.708131282336759193e-32,4.640505571052862266e-02,6.633718530179030273e-27,-9.955651052665789672e-25,1.215635259436065141e+01,1.274161457088194727e+00,5.282758595664925616e-02,0.000000000000000000e+00,0.000000000000000000e+00,0.000000000000000000e+00,1.104789925552004171e+01,-3.682508802559110173e+00
1.065000000000002750e-02,-3.834089114961233344e-33,5.885257787258807308e-32,4.762835789413864124e-02,-6.349970873244756155e-27,9.089719119771467721e-25,1.230979176259145014e+01,1.082400835896814240e+00,-2.171459063514409246e-02,0.000000000000000000e+00,0.000000000000000000e+00,0.000000000000000000e+00,1.115268646825544074e+01,-3.717432043593718927e+00
1.075000000000002690e-02,3.297112275278834276e-33,-3.539877678373533389e-32,4.886622119432514760e-02,6.044316044402208502e-27,-8.283323187077461051e-25,1.244747639641215819e+01,1.097391355460520579e+00,1.041490212696273392e-02,0.000000000000000000e+00,0.000000000000000000e+00,0.000000000000000000e+00,1.125734336572164196e+01,-3.752331466084903422e+00
1.085000000000002629e-02,-2.829189912383272823e-33,1.604721013391996586e-32,5.011749644334873716e-02,-5.725204907110867470e-27,7.534624761457744954e-25,1.257806098808173978e+01,1.146504360623446628e+00,1.515669028214853067e-02,0.000000000000000000e+00,0.000000000000000000e+00,0.000000000000000000e+00,1.136212162394875236e+01,-3.787245437202364950e+00
1.095000000000002569e-02,2.421880899314049515e-33,-2.119690462306795377e-34,5.138247740444461947e-02,5.399494028469918735e-27,-6.841416749651037186e-25,1.272147329066739374e+01,1.035913435960874596e+00,-1.667350700423685453e-02,0.000000000000000000e+00,0.000000000000000000e+00,0.000000000000000000e+00,1.146678698817403230e+01,-3.822153259461175345e+00
1.105000000000002508e-02,-2.067741789734796382e-33,-1.261669592525504540e-32,5.266212984144431203e-02,-5.072692349497371987e-27,6.201229657094923009e-25,1.287160507554339262e+01,1.003412445938476782e+00,1.321913298647823219e-02,0.000000000000000000e+00,0.000000000000000000e+00,0.000000000000000000e+00,1.157155725938658009e+01,-3.857057019457097002e+00
1.115000000000002447e-02,1.760211693080033351e-33,2.288174759290634099e-32,5.395614735770947606e-02,4.749173232245187809e-27,-5.611418823606922180e-25,1.300878567083440807e+01,1.309191392422774936e+00,1.309534380853638082e-02,0.000000000000000000e+00,0.000000000000000000e+00,0.000000000000000000e+00,1.167623014216372113e+01,-3.891978851562480912e+00
1.125000000000002387e-02,-1.493510197859226973e-33,-3.096762196777796118e-32,5.526270102041901111e-02,-4.432356464928447056e-27,5.069235567493562789e-25,1.312237108182959666e+01,1.087542359361256983e+00,-1.263036650506918317e-02,0.000000000000000000e+00,0.000000000000000000e+00,0.000000000000000000e+00,1.178099334946444188e+01,-3.926886177200174632e+00
1.135000000000002326e-02,1.262546884750328064e-33,3.720750399174362632e-32,5.658130395606638524e-02,4.124864224067588380e-27,-4.571884710889962468e-25,1.324956180775470926e+01,8.969626191462390929e-01,1.645545298456773178e-02,0.000000000000000000e+00,0.000000000000000000e+00,0.000000000000000000e+00,1.188567285725559763e+01,-3.961782241663446502e+00
1.145000000000002266e-02,-1.062841132284655640e-33,-4.188973339123767877e-32,5.791299473995145664e-02,-3.828654481860333541e-27,4.116570612802971136e-25,1.338430922144632085e+01,1.418577480283932823e+00,-9.995398320905273665e-04,0.000000000000000000e+00,0.000000000000000000e+00,0.000000000000000000e+00,1.199042986130020694e+01,-3.996712254547571508e+00
1.155000000000002205e-02,8.904510614645980347e-34,4.526344187091558283e-32,5.925800069625609956e-02,3.545134899778725743e-27,-3.700533535808196972e-25,1.351578530132520228e+01,7.437182230789738391e-01,-5.310560386260532867e-03,0.000000000000000000e+00,0.000000000000000000e+00,0.000000000000000000e+00,1.209511516869114267e+01,-4.031603505505536589e+00
1.165000000000002145e-02,-7.419105934857008782e-34,-4.754351132074600157e-32,6.061515682177733011e-02,-3.275259858043719859e-27,3.321077911809662963e-25,1.362744989422758657e+01,1.421129148330239289e+00,1.678006537542704735e-02,0.000000000000000000e+00,0.000000000000000000e+00,0.000000000000000000e+00,1.219986675809314036e+01,-4.066525783017277185e+00
1.175000000000002084e-02,6.141737084879307785e-34,4.891493246190267121e-32,6.198304282227434098e-02,3.019612927685735513e-27,-2.975593846605508552e-25,1.373023066919804691e+01,8.443217503572891802e-01,-1.668209800063830822e-02,0.000000000000000000e+00,0.000000000000000000e+00,0.000000000000000000e+00,1.230455711416485265e+01,-4.101430581059794633e+00
1.185000000000002024e-02,-5.045650945548817321e-34,-4.953663426162022641e-32,6.336194297494227023e-02,-2.778476791835487789e-27,2.661573007741552846e-25,1.384773064573329115e+01,1.282362739388849482e+00,2.013660880940936274e-02,0.000000000000000000e+00,0.000000000000000000e+00,0.000000000000000000e+00,1.240930400180187654e+01,-4.136339559896483387e+00
1.195000000000001963e-02,4.107364663235433514e-34,4.954484637677535338e-32,6.475277284925540222e-02,2.551892360402666166e-27,-2.376619871360041152e-25,1.396887973587545417e+01,9.936630974756842649e-01,-1.477587270675480291e-02,0.000000000000000000e+00,0.000000000000000000e+00,0.000000000000000000e+00,1.251399873161906662e+01,-4.171254784873859478e+00
1.205000000000001903e-02,-3.306279127929386020e-34,-4.905604972628227989e-32,6.615503633587477283e-02,-2.339708593345350704e-27,2.118459158035536921e-25,1.407644560954490309e+01,1.160563337445215781e+00,1.249754762281457890e-02,0.000000000000000000e+00,0.000000000000000000e+00,0.000000000000000000e+00,1.261874155494426120e+01,-4.206157958470072344e+00
1.215000000000001842e-02,2.624337053052124266e-34,4.816956394211998732e-32,6.756713103612239923e-02,2.141624347562711100e-27,-1.884940161934626899e-25,1.416549653782144524e+01,1.088827613063603206e+00,-7.122919858750408582e-03,0.000000000000000000e+00,0.000000000000000000e+00,0.000000000000000000e+00,1.272344005778897369e+01,-4.241074972265967524e+00
1.225000000000001782e-02,-2.045720601870971482e-34,-4.696981481752870264e-32,6.898837318400423413e-02,-1.957223387398229309e-27,1.674038569418596581e-25,1.425928872171717465e+01,1.102142947556267183e+00,3.516019010497106658e-03,0.000000000000000000e+00,0.000000000000000000e+00,0.000000000000000000e+00,1.282817938175681682e+01,-4.275979737037570061e+00
1.235000000000001721e-02,1.556584070395570339e-34,4.552831987843408080e-32,7.041958779630708154e-02,1.786003546073491404e-27,-1.483856270136966511e-25,1.436498851239789332e+01,1.125795638825585865e+00,-1.025309227016457138e-03,0.000000000000000000e+00,0.000000000000000000e+00,0.000000000000000000e+00,1.293288112729256056e+01,-4.310893558697622474e+00
1.245000000000001661e-02,-1.144817639196609998e-34,-4.390542577898316954e-32,7.186113815256713055e-02,-1.627400892497552647e-27,1.312619583732956298e-25,1.446605171521023081e+01,1.089279423655762136e+00,-2.096610427933732774e-03,0.000000000000000000e+00,0.000000000000000000e+00,0.000000000000000000e+00,1.303761744889651908e+01,-4.345802275975934492e+00
1.255000000000001600e-02,7.998386535334264258e-35,4.215182730063772439e-32,7.331177281896672504e-02,1.480809642227131290e-27,-1.158676256752302448e-25,1.454671514487411876e+01,1.131676687772472656e+00,1.102892774373720594e-03,0.000000000000000000e+00,0.000000000000000000e+00,0.000000000000000000e+00,1.314232197210729147e+01,-4.380712652020536169e+00
1.265000000000001540e-02,-5.124072886109156316e-35,-4.030989426017167188e-32,7.477008164610929319e-02,-1.345598450339611755e-27,1.020491525689974202e-25,1.461944587558959974e+01,1.094367672147025017e+00,-4.235611789467822082e-03,0.000000000000000000e+00,0.000000000000000000e+00,0.000000000000000000e+00,1.324705572581017066e+01,-4.415624165872719331e+00
1.275000000000001479e-02,2.744638101376037404e-35,3.841482955479251700e-32,7.623621070606652339e-02,1.221123635990523887e-27,-8.966434919961567848e-26,1.470309437443962430e+01,1.128990767746072876e+00,3.087414649896434325e-04,0.000000000000000000e+00,0.000000000000000000e+00,0.000000000000000000e+00,1.335176262132662828e+01,-4.450532895593193317e+00
1.285000000000001419e-02,-7.898495447285640838e-36,-3.649567884788713471e-32,7.771100791523567752e-02,-1.106739812108781453e-27,7.858180121354105818e-26,1.479285036765711148e+01,1.101526219233360804e+00,-4.628448366295517639e-03,0.000000000000000000e+00,0.000000000000000000e+00,0.000000000000000000e+00,1.345649418488008209e+01,-4.485445311687014325e+00
1.295000000000001358e-02,-8.014276816039714833e-36,3.457620998681485789e-32,7.919401497366047871e-02,1.001808327563457833e-27,-6.868032694429346707e-26,1.486736332767456759e+01,1.127148859377724355e+00,-1.690977969278703499e-03,0.000000000000000000e+00,0.000000000000000000e+00,0.000000000000000000e+00,1.356120310109728244e+01,-4.520353984536979119e+00
1.305000000000001298e-02,2.082347958116816552e-35,-3.267567810947842186e-32,8.068361040445055921e-02,-9.057038716194565691e-28,5.984841636720714885e-26,1.492457532108188367e+01,1.106314433789645557e+00,-4.777472527431627508e-03,0.000000000000000000e+00,0.000000000000000000e+00,0.000000000000000000e+00,1.366593280140973121e+01,-4.555266154016000435e+00
1.315000000000001237e-02,-3.099069902510833927e-35,3.080949050774135649e-32,8.217904386172120157e-02,8.178195404252127461e-28,-5.198366280149738382e-26,1.498406110281177028e+01,1.127243434880098816e+00,-3.832480953715172462e-03,0.000000000000000000e+00,0.000000000000000000e+00,0.000000000000000000e+00,1.377064343469330510e+01,-4.590175430937946111e+00
1.325000000000001177e-02,3.891623978445408650e-35,-2.898978364525671482e-32,8.368103015741518158e-02,-7.375706219493673782e-28,4.499219613411926036e-26,1.505563079080243938e+01,1.109363552519693652e+00,-5.151691587103933954e-03,0.000000000000000000e+00,0.000000000000000000e+00,0.000000000000000000e+00,1.387537155351166795e+01,-4.625087015077688157e+00
1.335000000000001116e-02,-4.494676540167834185e-35,2.722592325019139650e-32,8.518993354674246621e-02,6.643973184728404522e-28,-3.878812448617716849e-26,1.512248430318804182e+01,1.127727182126147198e+00,-6.006866581158755262e-03,0.000000000000000000e+00,0.000000000000000000e+00,0.000000000000000000e+00,1.398008364266066827e+01,-4.659997734858420948e+00
1.345000000000001056e-02,4.938202349761223741e-35,-2.552493709768660069e-32,8.670453282713606880e-02,-5.977665934997151754e-28,3.329298968906003574e-26,1.516956152268047653e+01,1.112240654101424031e+00,-6.438640013809211401e-03,0.000000000000000000e+00,0.000000000000000000e+00,0.000000000000000000e+00,1.408481042193207955e+01,-4.694908127167830791e+00
1.355000000000000995e-02,-5.248076232034399406e-35,2.389188894318087187e-32,8.822338564731808941e-02,5.371733019425682698e-28,-2.843524064082445050e-26,1.520749483679647263e+01,1.128409947032581906e+00,-7.401329543440120923e-03,0.000000000000000000e+00,0.000000000000000000e+00,0.000000000000000000e+00,1.418952374301488639e+01,-4.729818742434431122e+00
1.365000000000000935e-02,5.446593314355364243e-35,-2.233020104859947366e-32,8.974654074903636036e-02,-4.821407382189749625e-28,2.414972753623318645e-26,1.525555875788331051e+01,1.114839051976917128e+00,-8.106393511930355678e-03,0.000000000000000000e+00,0.000000000000000000e+00,0.000000000000000000e+00,1.429424938983763482e+01,-4.764729907867028658e+00
1.375000000000000874e-02,-5.552926217891562784e-35,2.084193184350253309e-32,9.127479401602554832e-02,4.322207161582840343e-28,-2.037721907395082771e-26,1.530951362442064578e+01,1.128114222304149150e+00,-9.355524777076958814e-03,0.000000000000000000e+00,0.000000000000000000e+00,0.000000000000000000e+00,1.439896375146187602e+01,-4.799639963757596384e+00
1.385000000000000814e-02,5.583526607510363373e-35,-1.942801446893910617e-32,9.280772146309933246e-02,-3.869932768734175289e-28,1.706394401378155006e-26,1.534909894901145400e+01,1.117526962496331766e+00,-9.933408140352827792e-03,0.000000000000000000e+00,0.000000000000000000e+00,0.000000000000000000e+00,1.450368844259334544e+01,-4.834551438210481500e+00
1.395000000000000753e-02,-5.552477656559806809e-35,1.808846125085338881e-32,9.434371972919447513e-02,3.460661054347939246e-28,-1.416115786142367645e-26,1.537090516262157180e+01,1.127660292531026176e+00,-1.141571791652442810e-02,0.000000000000000000e+00,0.000000000000000000e+00,0.000000000000000000e+00,1.460840368162311087e+01,-4.869461529881156991e+00
1.405000000000000693e-02,5.471803228401383263e-35,-1.682253853169579509e-32,9.588197293172590063e-02,-3.090737239425703038e-28,1.162473497726490380e-26,1.539412391871764108e+01,1.119866321327829262e+00,-1.199993933364578921e-02,0.000000000000000000e+00,0.000000000000000000e+00,0.000000000000000000e+00,1.471312756753535744e+01,-4.904372837937671648e+00
1.415000000000000632e-02,-5.351738906891533927e-35,1.562891574386188537e-32,9.742311536034714559e-02,2.756765172931123259e-28,-9.414786021402373438e-27,1.542869576491242789e+01,1.127273731465505913e+00,-1.361464938670601046e-02,0.000000000000000000e+00,0.000000000000000000e+00,0.000000000000000000e+00,1.481784354526108238e+01,-4.939283218233389228e+00
1.425000000000000572e-02,5.200969417960343588e-35,-1.450579212827765519e-32,9.896751305087500561e-02,-2.455596383825044846e-28,7.495300344010484317e-27,1.545929804879867753e+01,1.121702015931982377e+00,-1.428568065208923182e-02,0.000000000000000000e+00,0.000000000000000000e+00,0.000000000000000000e+00,1.492256675374773245e+01,-4.974194271525997912e+00
1.435000000000000511e-02,-5.026836439802367052e-35,1.345100407837106206e-32,1.005139938647501008e-01,2.184318313523151091e-28,-5.833812695246695046e-27,1.547038252215362419e+01,1.127000761292463737e+00,-1.597448561112478280e-02,0.000000000000000000e+00,0.000000000000000000e+00,0.000000000000000000e+00,1.502728335249603653e+01,-5.009104892823752486e+00
1.445000000000000451e-02,4.835520363096313505e-35,-1.246211571716300277e-32,1.020611021373935695e-01,-1.940242044721616601e-28,4.401093450822989039e-27,1.547178250909841069e+01,1.123031906000785618e+00,-1.678012226091443390e-02,0.000000000000000000e+00,0.000000000000000000e+00,0.000000000000000000e+00,1.513200599185679884e+01,-5.044015781962253087e+00
1.455000000000000390e-02,-4.632199137333392002e-35,1.153649498741284553e-32,1.036088081510783965e-01,1.720889782698170581e-28,-3.170861418556240102e-27,1.548229447325181773e+01,1.126788527478659541e+00,-1.850664514878731792e-02,0.000000000000000000e+00,0.000000000000000000e+00,0.000000000000000000e+00,1.523672311200328444e+01,-5.078926518775368493e+00
1.465000000000000330e-02,4.421186953092175675e-35,-1.067137724644108772e-32,1.051578710323908677e-01,-1.523982295256093474e-28,2.119518199436789538e-27,1.549896516999281815e+01,1.123920865470690034e+00,-1.947520499218089590e-02,0.000000000000000000e+00,0.000000000000000000e+00,0.000000000000000000e+00,1.534144527383934253e+01,-5.113837341534001268e+00
1.475000000000000269e-02,-4.206055214325986412e-35,9.863918103789572912e-33,1.067079138661025106e-01,1.347426475810347687e-28,-1.225903017037633412e-27,1.550195549366465109e+01,1.126561757872734049e+00,-2.122003611805886245e-02,0.000000000000000000e+00,0.000000000000000000e+00,0.000000000000000000e+00,1.544616283119799860e+01,-5.148748098875248758e+00
1.485000000000000209e-02,3.989737953782156480e-35,-9.111237017203958891e-33,1.082573714687470046e-01,-1.189303158666860807e-28,4.710668954977656439e-28,1.548723476334694027e+01,1.124553518187110690e+00,-2.224783892961058190e-02,0.000000000000000000e+00,0.000000000000000000e+00,0.000000000000000000e+00,1.555088459284705493e+01,-5.183658923078533931e+00
1.495000000000000148e-02,-3.774623593203894903e-35,8.410452966897544823e-33,1.098053855961471370e-01,1.047855285347196125e-28,1.619349461680263475e-28,1.547301759047427439e+01,1.125604193268367581e+00,-2.470387442038581363e-02,0.000000000000000000e+00,0.000000000000000000e+00,0.000000000000000000e+00,1.565560251639969636e+01,-5.218569555538385529e+00
1.505000000000000088e-02,3.562634725203456865e-35,-7.758713356480357544e-33,1.113525307348211396e-01,-9.214764957790759718e-29,-6.882336112928193333e-28,1.546985425324512775e+01,1.124769078365260411e+00,-2.547104449862898704e-02,0.000000000000000000e+00,0.000000000000000000e+00,0.000000000000000000e+00,1.576032394305157780e+01,-5.253479779716603737e+00
1.515000000000000027e-02,-3.355297394870915598e-35,7.153217138477646176e-33,1.128991904772879695e-01,8.087001979009578279e-29,1.121321064484445265e-27,1.546337893725162793e+01,1.126052058754539065e+00,-2.754566001162132155e-02,0.000000000000000000e+00,0.000000000000000000e+00,0.000000000000000000e+00,1.586504217298248420e+01,-5.288391211284727333e+00
1.524999999999999967e-02,3.153801183352860327e-35,-6.591233030510670414e-33,1.144442586879596407e-01,-7.081891525323971798e-29,-1.473209774422906744e-27,1.543804761184258822e+01,1.124629887074929613e+00,-2.908644020564273708e-02,0.000000000000000000e+00,0.000000000000000000e+00,0.000000000000000000e+00,1.596976331950038741e+01,-5.323301838559733490e+00
1.534999999999999906e-02,-2.959051240189745249e-35,6.070113572752313452e-33,1.159862878674978726e-01,6.187255962666369137e-29,1.754578506877062434e-27,1.540253933743183623e+01,1.125458715125960296e+00,-3.063831795500912558e-02,0.000000000000000000e+00,0.000000000000000000e+00,0.000000000000000000e+00,1.607448180550634831e+01,-5.358212337254543378e+00
1.544999999999999846e-02,2.771713273825688774e-35,-5.587305676240516758e-33,1.175251902393087688e-01,-5.392019135197647258e-29,-1.974905272729552737e-27,1.537546530102753017e+01,1.124307328024541475e+00,-3.232589977688601207e-02,0.000000000000000000e+00,0.000000000000000000e+00,0.000000000000000000e+00,1.617920271799832577e+01,-5.393123349122123322e+00
1.554999999999999785e-02,-2.592252388332545874e-35,5.140358223303553825e-33,1.190619625058106784e-01,4.686118598123030961e-29,2.142588390212847138e-27,1.535995582184353658e+01,1.173697012205051404e+00,-8.353393241983758308e-03,0.000000000000000000e+00,0.000000000000000000e+00,0.000000000000000000e+00,1.628392141782939362e+01,-5.428040951437906436e+00
1.564999999999999725e-02,2.420966547199780509e-35,-4.726927204191589964e-33,1.205988507235016410e-01,-4.060423314183087458e-29,-2.265056572355300383e-27,1.537766718578617819e+01,1.183610177717597134e+00,1.731587690203355290e-01,0.000000000000000000e+00,0.000000000000000000e+00,0.000000000000000000e+00,1.638864213499701350e+01,-5.462993248682159297e+00
1.574999999999999664e-02,-2.258015350410221739e-35,4.344778806668978103e-33,1.221376537761860726e-01,3.506656705199181537e-29,2.348868900961978867e-27,1.539848181696264362e+01,-7.208143191545106632e-01,-1.703966639430272378e+00,0.000000000000000000e+00,0.000000000000000000e+00,0.000000000000000000e+00,1.649336101321416237e+01,-5.497611021055691438e+00
1.584999999999999604e-02,2.103444727506603711e-35,-3.991790816608972960e-33,1.236747820381303292e-01,-3.017324907218486690e-29,-2.399805498239055916e-27,1.534437792082218088e+01,2.769701062753988197e+00,1.203405627332849059e+00,0.000000000000000000e+00,0.000000000000000000e+00,0.000000000000000000e+00,1.659808156749862107e+01,-5.532781854073048677e+00
1.594999999999999543e-02,-1.957208075679596807e-35,3.665952636494271388e-33,1.252055128714455179e-01,2.585650050127225988e-29,2.422949657154761006e-27,1.527012099046453386e+01,9.363484641389991925e-01,-1.106570666388151658e-01,0.000000000000000000e+00,0.000000000000000000e+00,0.000000000000000000e+00,1.670280059441298803e+01,-5.567851282191536910e+00
1.604999999999999483e-02,1.819184306942936761e-35,-3.365364184236445142e-33,1.267303948250539936e-01,-2.205508348950715408e-29,-2.422762142398230469e-27,1.522745258047190475e+01,1.275560465456066828e+00,1.381134262928257750e-01,0.000000000000000000e+00,0.000000000000000000e+00,0.000000000000000000e+00,1.680752101298016399e+01,-5.602447895240002751e+00
1.614999999999999422e-02,-1.689193211196811396e-35,3.088233896065240187e-33,1.282509886300005897e-01,1.871372778097802169e-29,2.403148325805442705e-27,1.518447264626704296e+01,9.261342756844155311e-01,-1.638824296341200581e-01,0.000000000000000000e+00,0.000000000000000000e+00,0.000000000000000000e+00,1.691224016374037475e+01,-5.637564753265875694e+00
1.624999999999999362e-02,1.567008491530486258e-35,-2.832876023685893454e-33,1.297673474262201476e-01,-1.578260099402847931e-29,-2.367518773712810696e-27,1.514266195434912810e+01,9.836916524680996421e-01,-1.615165009585065869e-01,0.000000000000000000e+00,0.000000000000000000e+00,0.000000000000000000e+00,1.701696046931414941e+01,-5.672347148123708216e+00
1.634999999999999301e-02,-1.452368783685448805e-35,2.597707386821762106e-33,1.312796826739444644e-01,1.321682003988898326e-29,2.318843859125669733e-27,1.510405771192898428e+01,1.078040554805195006e+00,-1.322695523937612583e-01,0.000000000000000000e+00,0.000000000000000000e+00,0.000000000000000000e+00,1.712167972314768605e+01,-5.707281804909674960e+00
1.644999999999999241e-02,1.344986932494107990e-35,-2.381243717093611442e-33,1.327881170010703771e-01,-1.097600124431328313e-29,-2.259702929029343970e-27,1.506462210890730979e+01,1.153800379237995610e+00,-4.821845489278597796e-02,0.000000000000000000e+00,0.000000000000000000e+00,0.000000000000000000e+00,1.722639993471367248e+01,-5.742249110153875513e+00
1.654999999999999180e-02,-1.244557763704182436e-35,2.182095707442864577e-33,1.342919975189988679e-01,9.023846785481609450e-30,2.192328516740477928e-27,1.501305120181493891e+01,1.106695660982062845e+00,-9.300618012053472883e-02,0.000000000000000000e+00,0.000000000000000000e+00,0.000000000000000000e+00,1.733111927427233212e+01,-5.777090093188547826e+00
1.664999999999999120e-02,1.150764559347307987e-35,-1.998964862551320354e-33,1.357898313065817320e-01,-7.327765102734606363e-30,-2.118646050960576577e-27,1.494366401183199855e+01,1.148552510787604231e+00,-5.397882359172302691e-02,0.000000000000000000e+00,0.000000000000000000e+00,0.000000000000000000e+00,1.743583940768098017e+01,-5.812063237204270649e+00
1.674999999999999059e-02,-1.063284418224762506e-35,1.830639229563659830e-33,1.372807152480219339e-01,5.858522993541532947e-30,2.040309477176572177e-27,1.487398750165031380e+01,1.109183097614566682e+00,-8.214313773482943837e-02,0.000000000000000000e+00,0.000000000000000000e+00,0.000000000000000000e+00,1.754055881848464793e+01,-5.846928090999062633e+00
1.684999999999998999e-02,9.817926597332550245e-36,-1.675989074548021067e-33,1.387651537172258920e-01,-4.589927189786050498e-30,-1.958733173246351839e-27,1.481475179213387428e+01,1.137070849696054209e+00,-6.327640393950983988e-02,0.000000000000000000e+00,0.000000000000000000e+00,0.000000000000000000e+00,1.764527888695960200e+01,-5.881866776268047659e+00
1.694999999999998938e-02,-9.059664087578009947e-36,1.533962558239875966e-33,1.402435956078827983e-01,3.498533298204044214e-30,1.875120509376339347e-27,1.475411461046318884e+01,1.111739643276684175e+00,-7.857212188323293989e-02,0.000000000000000000e+00,0.000000000000000000e+00,0.000000000000000000e+00,1.774999835693558836e+01,-5.916763743672000864e+00
1.704999999999998878e-02,8.354874813801051204e-36,-1.403581454447873157e-33,1.417151049170117250e-01,-2.563380094534803769e-30,-1.790489373189191886e-27,1.467613376382318258e+01,1.128919556956845094e+00,-6.977161686211851011e-02,0.000000000000000000e+00,0.000000000000000000e+00,0.000000000000000000e+00,1.785471837149427188e+01,-5.951676946458057671e+00
1.714999999999998817e-02,-7.700446753903703576e-36,1.283936945831882101e-33,1.431782964566923610e-01,1.765747259752881614e-30,1.705694953122888678e-27,1.458770180477870682e+01,1.113395130664576183e+00,-7.921345990200853726e-02,0.000000000000000000e+00,0.000000000000000000e+00,0.000000000000000000e+00,1.795943789059064244e+01,-5.986590498610342870e+00
1.724999999999998757e-02,7.093355557847818957e-36,-1.174185524394602223e-33,1.446330158094650264e-01,-1.088934745357454224e-30,-1.621450047917409378e-27,1.450664648303997772e+01,1.122523530523964252e+00,-7.569149956395709866e-02,0.000000000000000000e+00,0.000000000000000000e+00,0.000000000000000000e+00,1.806415786040711424e+01,-6.021495161282604869e+00
1.734999999999998696e-02,-6.530678133464062011e-36,1.073545017786466271e-33,1.460799940983752709e-01,5.180620605399492525e-31,1.538343146343308286e-27,1.443291245967254177e+01,1.113817689053570259e+00,-8.172819126426565661e-02,0.000000000000000000e+00,0.000000000000000000e+00,0.000000000000000000e+00,1.816887742025078722e+01,-6.056411077632592566e+00
1.744999999999998636e-02,6.009602638378571610e-36,-9.812907572560054032e-34,1.475190673188825907e-01,-3.988588408748864683e-32,-1.456854499514208892e-27,1.434860750038205879e+01,1.118091006596123149e+00,-8.100501926785237672e-02,0.000000000000000000e+00,0.000000000000000000e+00,0.000000000000000000e+00,1.827359735296330356e+01,-6.091316564649319254e+00
1.754999999999998575e-02,-5.527435460975549788e-36,8.967518986537670774e-34,1.489488772101003056e-01,-3.573654922505912867e-31,1.377370388005906465e-27,1.424762969840574911e+01,1.113314774159239962e+00,-8.538500052811895391e-02,0.000000000000000000e+00,0.000000000000000000e+00,0.000000000000000000e+00,1.837831694658929749e+01,-6.126229952286305291e+00
1.764999999999998515e-02,5.081605692669342591e-36,-8.193079041994166604e-34,1.503685389351200608e-01,6.841422863404294038e-31,-1.300195767480683541e-27,1.414558128856303298e+01,1.114752103007783157e+00,-8.663231609250129917e-02,0.000000000000000000e+00,0.000000000000000000e+00,0.000000000000000000e+00,1.848303684854689166e+01,-6.161138421388494102e+00
1.774999999999998454e-02,-4.669667523414626415e-36,7.483851896494045164e-34,1.517785298149023909e-01,-9.497092174283587097e-31,1.225565459489350586e-27,1.405420235761919479e+01,1.111979095923086192e+00,-8.953618793637088680e-02,0.000000000000000000e+00,0.000000000000000000e+00,0.000000000000000000e+00,1.858775647016783950e+01,-6.196048837608916671e+00
1.784999999999998394e-02,4.289300931084157054e-36,-6.834539389674017328e-34,1.531793513222408643e-01,1.162268575044708158e-30,-1.153654038499491064e-27,1.396225519846500873e+01,1.112216164285629860e+00,-9.182509658792542551e-02,0.000000000000000000e+00,0.000000000000000000e+00,0.000000000000000000e+00,1.869247634664709068e+01,-6.230959149402712782e+00
1.794999999999998333e-02,-3.938310981985628706e-36,6.240250865253045747e-34,1.545701687984422090e-01,-1.329071481778097775e-30,1.084584551882916784e-27,1.385415169459866647e+01,1.109628929903216266e+00,-9.368519463714362894e-02,0.000000000000000000e+00,0.000000000000000000e+00,0.000000000000000000e+00,1.879719599145431275e+01,-6.265868373538232561e+00
1.804999999999998272e-02,3.614626013395969729e-36,-5.696474651819497869e-34,1.559496564178103062e-01,1.456518383943593867e-30,-1.018436196497841990e-27,1.373560891849773391e+01,1.109513314393478334e+00,-9.816637996721649939e-02,0.000000000000000000e+00,0.000000000000000000e+00,0.000000000000000000e+00,1.890191584683469372e+01,-6.300779063755690856e+00
1.814999999999998212e-02,-3.316294928704379839e-36,5.199051172420121138e-34,1.573176505397941571e-01,-1.550249727465081714e-30,9.552510635348115545e-28,1.362423324646321809e+01,1.108065400536892176e+00,-1.013675878083358517e-01,0.000000000000000000e+00,0.000000000000000000e+00,0.000000000000000000e+00,1.900663551083676950e+01,-6.335688594907534110e+00
1.824999999999998151e-02,3.041483800817149393e-36,-4.744147642382471516e-34,1.586748987993168991e-01,1.615227701258460360e-30,-8.950400523768821474e-28,1.352072359821723424e+01,1.112224822366974619e+00,-1.031559746143079076e-01,0.000000000000000000e+00,0.000000000000000000e+00,0.000000000000000000e+00,1.911135534875770148e+01,-6.370598668333451897e+00
1.834999999999998091e-02,-2.788471949220323295e-36,4.328234306628107039e-34,1.600213288471775963e-01,-1.655809857772483383e-30,8.377880442749141120e-28,1.340792785970455903e+01,1.160114372250165893e+00,-9.715902481657870404e-02,0.000000000000000000e+00,0.000000000000000000e+00,0.000000000000000000e+00,1.921607502864097583e+01,-6.405509970649747586e+00
1.844999999999998030e-02,2.555647629934693823e-36,-3.948062161600850098e-34,1.613556860920289382e-01,1.675815353915888898e-30,-7.834584175833178735e-28,1.327925627054260893e+01,1.132914862289309932e+00,-1.055130807988668568e-01,0.000000000000000000e+00,0.000000000000000000e+00,0.000000000000000000e+00,1.932079485211642123e+01,-6.440419170323410825e+00
1.854999999999997970e-02,-2.341503455013981333e-36,3.600642102512728931e-34,1.626771216932816344e-01,-1.678584495880446089e-30,7.319969780696606237e-28,1.314943273297489945e+01,1.130959345675477845e+00,-1.143601320043916153e-01,0.000000000000000000e+00,0.000000000000000000e+00,0.000000000000000000e+00,1.942551454513711917e+01,-6.475327714390038736e+00
1.864999999999997909e-02,2.144631638778073864e-36,-3.283225433626224787e-34,1.639861148651349521e-01,1.667032215185719940e-30,-6.833353703370330055e-28,1.303039583630478404e+01,1.114551363743882195e+00,-1.200267291587219232e-01,0.000000000000000000e+00,0.000000000000000000e+00,0.000000000000000000e+00,1.953023435666689522e+01,-6.510238714558718165e+00
1.874999999999997849e-02,-1.963719151239203890e-36,2.993285677491882641e-34,1.652832276370977682e-01,-1.643696048991684432e-30,6.373940296189525558e-28,1.291188245647628641e+01,1.111530435631774116e+00,-1.233162811472034714e-01,0.000000000000000000e+00,0.000000000000000000e+00,0.000000000000000000e+00,1.963495406054840586e+01,-6.545146803145069470e+00
1.884999999999997788e-02,1.797542844820329256e-36,-2.728501618248164920e-34,1.665677395885758472e-01,1.610779147192781759e-30,-5.940847270649616834e-28,1.277841151959860611e+01,1.104127024158811254e+00,-1.270019694909996777e-01,0.000000000000000000e+00,0.000000000000000000e+00,0.000000000000000000e+00,1.973967386220437703e+01,-6.580056975813211473e+00
1.894999999999997728e-02,-1.644964608172835218e-36,2.486741514078229682e-34,1.678383976092144569e-01,-1.570188783670251655e-30,5.533127560770358902e-28,1.263475765421857844e+01,1.105468608961348131e+00,-1.316933986663785527e-01,0.000000000000000000e+00,0.000000000000000000e+00,0.000000000000000000e+00,1.984439357506180812e+01,-6.614966055126807909e+00
1.904999999999997667e-02,1.504926590406634137e-36,-2.266048414559828229e-34,1.690950445350062892e-01,1.523570808098065492e-30,-5.149788022323550845e-28,1.249814081994374071e+01,1.098390190694635615e+00,-1.327365904241646077e-01,0.000000000000000000e+00,0.000000000000000000e+00,0.000000000000000000e+00,1.994911336855849271e+01,-6.649875152303126313e+00
1.914999999999997607e-02,-1.376446530111951030e-36,2.064626519804313558e-34,1.703384558621806877e-01,-1.472340435795344745e-30,4.789805347905187901e-28,1.237007393590879012e+01,1.100207352948507911e+00,-1.354805071354721335e-01,0.000000000000000000e+00,0.000000000000000000e+00,0.000000000000000000e+00,2.005383308883228466e+01,-6.684784676577122831e+00
1.924999999999997546e-02,1.258613215972141841e-36,-1.880828519854312848e-34,1.715686660335338232e-01,1.417709736348260848e-30,-4.452139536899362933e-28,1.223417553535061053e+01,1.090044025681604634e+00,-1.421343854634067594e-01,0.000000000000000000e+00,0.000000000000000000e+00,0.000000000000000000e+00,2.015855287558965259e+01,-6.719693957742685519e+00
1.934999999999997486e-02,-1.150582099359165563e-36,1.713143854696282885e-34,1.727845300366222248e-01,-1.360712148538047742e-30,4.135745222492522282e-28,1.208314344970541576e+01,1.090724229093930520e+00,-1.426877192413464890e-01,0.000000000000000000e+00,0.000000000000000000e+00,0.000000000000000000e+00,2.026327260198618774e+01,-6.754602362003586435e+00
1.944999999999997425e-02,1.051571073909066256e-36,-1.560187837371284307e-34,1.739852323985986160e-01,1.302224319627501716e-30,-3.839581124687223979e-28,1.193088136712975533e+01,1.092531098739563333e+00,-1.448125169288626279e-01,0.000000000000000000e+00,0.000000000000000000e+00,0.000000000000000000e+00,2.036799238318214123e+01,-6.789510449532819791e+00
1.954999999999997365e-02,-9.608564325553846797e-37,1.420691584964312169e-34,1.751712650925466852e-01,-1.242985539849939604e-30,3.562617868398308871e-28,1.178973563098428379e+01,1.092229296959125406e+00,-1.529984252964924907e-01,0.000000000000000000e+00,0.000000000000000000e+00,0.000000000000000000e+00,2.047271211462949836e+01,-6.824420145297903417e+00
1.964999999999997304e-02,8.777690087333549115e-37,-1.293492704665022504e-34,1.763432710483919807e-01,1.183615017166523842e-30,-3.303844378882528664e-28,1.165040163971944054e+01,1.088857076245017375e+00,-1.557592119306797362e-01,0.000000000000000000e+00,0.000000000000000000e+00,0.000000000000000000e+00,2.057743189123721450e+01,-6.859328325796335335e+00
1.974999999999997244e-02,-8.016905053501819676e-37,1.177526684575961141e-34,1.775006610833171350e-01,-1.124627213648405084e-30,3.062273042671912289e-28,1.149745100741286841e+01,1.089338462602136293e+00,-1.568207369285093133e-01,0.000000000000000000e+00,0.000000000000000000e+00,0.000000000000000000e+00,2.068215162685336850e+01,-6.894237875187682718e+00
1.984999999999997183e-02,7.320500125563074424e-37,-1.071818941458053245e-34,1.786422729328625281e-01,1.066445443864034850e-30,-2.836943800591973921e-28,1.133479464158982886e+01,1.117782637738305773e+00,-1.674046871040661688e-01,0.000000000000000000e+00,0.000000000000000000e+00,0.000000000000000000e+00,2.078687139967285802e+01,-6.929147203530313881e+00
1.994999999999997123e-02,-6.683207132677056434e-37,9.754774801179719994e-35,1.797679760399986948e-01,-1.009413916845713856e-30,2.626927320110939441e-28,1.117922728563005208e+01,1.143577042346410444e+00,-1.722021829628855860e-01,0.000000000000000000e+00,0.000000000000000000e+00,0.000000000000000000e+00,2.089159113873067852e+01,-6.964057243390183061e+00
2.004999999999997062e-02,6.100167737112621889e-37,-8.876861216313182254e-35,1.808785922718623429e-01,9.538083856171175686e-31,-2.431327376968865425e-28,1.103308151990333208e+01,1.113741998846030423e+00,-1.743932804100930545e-01,0.000000000000000000e+00,0.000000000000000000e+00,0.000000000000000000e+00,2.099631090842603953e+01,-6.998965263616580224e+00
2.014999999999997002e-02,-5.566904149334287551e-37,8.076982600408256770e-35,1.819742799045392379e-01,-8.998455518349726932e-31,2.249282560577900497e-28,1.088071242432483388e+01,1.100570692228916680e+00,-1.781375105654670332e-01,0.000000000000000000e+00,0.000000000000000000e+00,0.000000000000000000e+00,2.110103065031871594e+01,-7.033875333745326586e+00
2.024999999999996941e-02,5.079291601740463919e-37,-7.348311095521107156e-35,1.830540236198884840e-01,8.476913583953573907e-31,-2.079967403886853789e-28,1.071419952676047416e+01,1.085077099948351886e+00,-1.859862993660919006e-01,0.000000000000000000e+00,0.000000000000000000e+00,0.000000000000000000e+00,2.120575041744061195e+01,-7.068785288748198781e+00
2.034999999999996881e-02,-4.633532522172100216e-37,6.684604065607308790e-35,1.841170659087425221e-01,-7.974682899080161069e-31,1.922593026100504646e-28,1.054662395734704283e+01,1.079619438671997944e+00,-1.884944825066122986e-01,0.000000000000000000e+00,0.000000000000000000e+00,0.000000000000000000e+00,2.131047016167098462e+01,-7.103692473055494006e+00
2.044999999999996820e-02,4.226132342500019733e-37,-6.080155330721072934e-35,1.851639269156463152e-01,7.492617891390673984e-31,-1.776407365687596030e-28,1.039055732710549762e+01,1.072651112245992744e+00,-1.915846068037119487e-01,0.000000000000000000e+00,0.000000000000000000e+00,0.000000000000000000e+00,2.141518992666894761e+01,-7.138601641925317765e+00
2.054999999999996760e-02,-3.853876873540591546e-37,5.529750302156001657e-35,1.861953280030516633e-01,-7.031258864572949913e-31,1.640695071365799667e-28,1.023747838303331825e+01,1.069620784558964921e+00,-1.921348976618669213e-01,0.000000000000000000e+00,0.000000000000000000e+00,0.000000000000000000e+00,2.151990967282808853e+01,-7.173507921270585896e+00
2.064999999999996699e-02,3.513811174948021195e-37,-5.028624725996718532e-35,1.872108072943007850e-01,6.590881292169800879e-31,-1.514777110094065306e-28,1.007215586941731189e+01,1.042359183898413422e+00,-1.856760067096078215e-01,0.000000000000000000e+00,0.000000000000000000e+00,0.000000000000000000e+00,2.162462943607544119e+01,-7.208415137854943922e+00
2.074999999999996639e-02,-3.203219847338574743e-37,4.572426762047671643e-35,1.882093061221664365e-01,-6.171538891476957553e-31,1.398010143421334806e-28,9.897828553099786930e+00,1.072709409306833450e+00,-1.564083153230338141e-01,0.000000000000000000e+00,0.000000000000000000e+00,0.000000000000000000e+00,2.172934918382256342e+01,-7.243324325369338901e+00
2.084999999999996578e-02,2.919608673501536885e-37,-4.157182143628545794e-35,1.891907401723609550e-01,5.773101179537845193e-31,-1.289785716734691058e-28,9.730811752099786105e+00,1.071510863707722416e+00,-1.646389548066334862e-01,0.000000000000000000e+00,0.000000000000000000e+00,0.000000000000000000e+00,2.183406894562989464e+01,-7.278230809210302077e+00
2.094999999999996518e-02,-2.660687535958495192e-37,3.779262181272720491e-35,1.901559880063205810e-01,-5.395286140316433728e-31,1.189529299928397093e-28,9.574125099592993848e+00,1.060852560935005462e+00,-1.731580114646242563e-01,0.000000000000000000e+00,0.000000000000000000e+00,0.000000000000000000e+00,2.193878869468404957e+01,-7.313140362768284497e+00
2.104999999999996457e-02,2.424354539189058923e-37,-3.435354389951795788e-35,1.911067662370126707e-01,5.037688564039579460e-31,-1.096699212695528194e-28,9.441339574786288935e+00,-6.474967451095982041e-01,-1.256384478118206305e+00,0.000000000000000000e+00,0.000000000000000000e+00,0.000000000000000000e+00,2.204350845530366598e+01,-7.347904130159338187e+00
2.114999999999996397e-02,-2.208681266413933433e-37,3.122435535082299719e-35,1.920430711125645784e-01,-4.699804561955094954e-31,1.010785462951509565e-28,9.284943588214513710e+00,2.593249997424336151e+00,7.827242345569087600e-01,0.000000000000000000e+00,0.000000000000000000e+00,0.000000000000000000e+00,2.214822820543692217e+01,-7.382969461531976307e+00
2.124999999999996336e-02,2.011899102801942159e-37,-2.837746907287211004e-35,1.929618757455555667e-01,4.381052703931857228e-31,-9.313085227667372161e-29,9.091192783185059412e+00,1.039000153888287148e+00,-3.458101116684779708e-01,0.000000000000000000e+00,0.000000000000000000e+00,0.000000000000000000e+00,2.225294796507673212e+01,-7.417980071231415451e+00
2.134999999999996276e-02,-1.832386559248232157e-37,2.578771649700315152e-35,1.938639193862972399e-01,-4.080792178189549274e-31,8.578180625530620389e-29,8.949399640154473090e+00,4.640557261847160220e-01,-4.646468585249090011e-01,0.000000000000000000e+00,0.000000000000000000e+00,0.000000000000000000e+00,2.235766771609887726e+01,-7.452651653883662242e+00
2.144999999999996215e-02,1.668657533377219351e-37,-2.343213974557947235e-35,1.947529789438174064e-01,3.798338335449853294e-31,-7.898916610617521439e-29,8.831879293554495192e+00,1.044214293260643522e+00,-1.593282154721235300e-01,0.000000000000000000e+00,0.000000000000000000e+00,0.000000000000000000e+00,2.246238747493341492e+01,-7.487650081498978594e+00
2.154999999999996155e-02,-1.519350447087935235e-37,2.128980117947044624e-35,1.956288192311186336e-01,-3.532975934008638674e-31,7.271335059597405582e-29,8.685003068814461713e+00,1.101877276911207071e+00,-1.986239167114990378e-01,0.000000000000000000e+00,0.000000000000000000e+00,0.000000000000000000e+00,2.256710722668439573e+01,-7.522576159335956802e+00
2.164999999999996094e-02,1.383218202722713183e-37,-1.934160892912735197e-35,1.964894014355860197e-01,3.283970365046398633e-31,-6.691730973124203026e-29,8.526640259291871971e+00,1.001456589797514729e+00,-2.465590408581325166e-01,0.000000000000000000e+00,0.000000000000000000e+00,0.000000000000000000e+00,2.267182698485801140e+01,-7.557461274203370216e+00
2.174999999999996034e-02,-1.259118902759651810e-37,1.757015711705831037e-35,1.973374715804356583e-01,-3.050577112119224709e-31,6.156639641753854881e-29,8.434446592562242273e+00,-6.288516317535211009e-01,-1.273414181510074794e+00,0.000000000000000000e+00,0.000000000000000000e+00,0.000000000000000000e+00,2.277654673721004386e+01,-7.592261296055745845e+00
2.184999999999995973e-02,1.146007280761998918e-37,-1.595957957811186268e-35,1.981773205806169336e-01,2.832049670921610729e-31,-5.662824026490149422e-29,8.362665593805337139e+00,3.097208265102661340e+00,1.025288576658314188e+00,0.000000000000000000e+00,0.000000000000000000e+00,0.000000000000000000e+00,2.288126649483731256e+01,-7.627317330024278696e+00
2.194999999999995913e-02,-1.042926794136281342e-37,1.449541597578392780e-35,1.990066230558007743e-01,-2.627646125527036238e-31,5.207262421469050545e-29,8.223609666578074240e+00,-6.728062799149934214e-01,-1.449380899007552959e+00,0.000000000000000000e+00,0.000000000000000000e+00,0.000000000000000000e+00,2.298598624768575860e+01,-7.662161122821446568e+00
2.204999999999995852e-02,9.490023320280820485e-38,-1.316448929814069412e-35,1.998236334903244482e-01,2.436634553585717507e-31,-4.787136452433915528e-29,8.116283022447760231e+00,5.679075072221516640e-01,-5.147326521222890250e-01,0.000000000000000000e+00,0.000000000000000000e+00,0.000000000000000000e+00,2.309070600486354863e+01,-7.696898516604713691e+00
2.214999999999995792e-02,-8.634334944001630160e-38,1.195479379626811446e-35,2.006317331002623883e-01,-2.258297419387741072e-31,4.399819452713123590e-29,8.045762887844180256e+00,7.963722042932007694e-01,-4.772197331217846172e-01,0.000000000000000000e+00,0.000000000000000000e+00,0.000000000000000000e+00,2.319542575811655283e+01,-7.732008713558045088e+00
2.224999999999995731e-02,7.854884009775345286e-38,-1.085539250178836288e-35,2.014308376460706151e-01,2.091935092677645665e-31,-4.042865248161952908e-29,7.936474459615502575e+00,3.051104369925635051e+00,9.843042699423569797e-01,0.000000000000000000e+00,0.000000000000000000e+00,0.000000000000000000e+00,2.330014551493072616e+01,-7.766987517776789751e+00
2.234999999999995671e-02,-7.144979912954279985e-38,9.856323528241956040e-36,2.022178769343177251e-01,-1.936868611007362836e-31,3.713997373768682931e-29,7.804314244228160113e+00,-7.012641340580697547e-01,-1.243733017660337614e+00,0.000000000000000000e+00,0.000000000000000000e+00,0.000000000000000000e+00,2.340486526851260862e+01,-7.801774379992245656e+00
2.244999999999995610e-02,6.498507795399699567e-38,-8.948514424387109567e-36,2.029932451190203102e-01,1.792441793239761729e-31,-3.411098737169765724e-29,7.702900201566663441e+00,7.843404433319538516e-01,-2.074222106709517621e-01,0.000000000000000000e+00,0.000000000000000000e+00,0.000000000000000000e+00,2.350958502502613712e+01,-7.836575481201565552e+00
2.254999999999995550e-02,-5.909880302226609346e-38,8.123703906020765854e-36,2.037592694984186881e-01,-1.658022799396929404e-31,3.132201738010543466e-29,7.617618741199725818e+00,1.046962920908448558e+00,-4.691022097518884326e-01,0.000000000000000000e+00,0.000000000000000000e+00,0.000000000000000000e+00,2.361430477888247381e+01,-7.871632298397218008e+00
2.264999999999995489e-02,5.373993229734014063e-38,-7.374370347083864865e-36,2.045162464019529003e-01,1.533005218219273537e-31,-2.875478846783306128e-29,7.521946243875194504e+00,1.364924737140931876e+00,-5.464313839652140681e-02,0.000000000000000000e+00,0.000000000000000000e+00,0.000000000000000000e+00,2.371902453514778841e+01,-7.906495930113616843e+00
2.274999999999995429e-02,-4.886184768717722630e-38,6.693666460873922192e-36,2.052617046933566114e-01,-1.416808754110094787e-31,2.639233642346052245e-29,7.387386075507457406e+00,2.787115928634944062e+00,7.712144414753488997e-01,0.000000000000000000e+00,0.000000000000000000e+00,0.000000000000000000e+00,2.382374428922850385e+01,-7.941542066139702705e+00
2.284999999999995368e-02,4.442198067607298215e-38,-6.075359648435242116e-36,2.059940992454921682e-01,1.308879576696299033e-31,-2.421892303660583672e-29,7.260347892255764712e+00,-1.315756354287073437e-01,-1.148463500669733239e+00,0.000000000000000000e+00,0.000000000000000000e+00,0.000000000000000000e+00,2.392846404529048598e+01,-7.976311100319485980e+00
2.294999999999995308e-02,-4.038146859031838244e-38,5.513777533875605126e-36,2.067163605399369442e-01,-1.208690388530756783e-31,2.221995548287710026e-29,7.184746125708855402e+00,1.074035877745333822e+00,-3.732014743932527967e-01,0.000000000000000000e+00,0.000000000000000000e+00,0.000000000000000000e+00,2.403318379955683781e+01,-8.011139918675912241e+00
2.304999999999995247e-02,3.670483911495399508e-38,-5.003758245743518777e-36,2.074302605691198675e-01,1.115740259331203180e-31,-2.038191007751876413e-29,7.093425573582430310e+00,1.390803789460619111e+00,5.479205657015824571e-02,0.000000000000000000e+00,0.000000000000000000e+00,0.000000000000000000e+00,2.413790355544795219e+01,-8.046169218686461733e+00
2.314999999999995187e-02,-3.335972084875915097e-38,4.540605039898981697e-36,2.081350384156332445e-01,-1.029554267519998329e-31,1.869226027959493254e-29,7.002007376155382268e+00,1.471715671542812354e+00,1.933893543696506845e-01,0.000000000000000000e+00,0.000000000000000000e+00,0.000000000000000000e+00,2.424262330986864100e+01,-8.081020372851176248e+00
2.324999999999995126e-02,3.031657784465379718e-38,-4.120044892766006457e-36,2.088302320654800981e-01,9.496829853962961033e-32,-1.713940881355309488e-29,6.901996899822424147e+00,2.797637859006936178e+00,9.871947412197339400e-01,0.000000000000000000e+00,0.000000000000000000e+00,0.000000000000000000e+00,2.434734306562172179e+01,-8.116066651752783301e+00
2.334999999999995066e-02,-2.754846623288192671e-38,3.738190724660635907e-36,2.095142422375081415e-01,-8.757018396173041480e-32,1.571262376368880616e-29,6.778224757255783217e+00,2.089579077957484654e-02,-6.652991507163416030e-01,0.000000000000000000e+00,0.000000000000000000e+00,0.000000000000000000e+00,2.445206282016865273e+01,-8.150832079671422647e+00
2.344999999999995005e-02,2.503081116501760488e-38,-3.391506941248664081e-36,2.101870345737072709e-01,8.072103734860698838e-32,-1.440197848885044754e-29,6.677498451191444140e+00,7.889889733843703512e-01,-4.865835293229929803e-01,0.000000000000000000e+00,0.000000000000000000e+00,0.000000000000000000e+00,2.455678257580495227e+01,-8.185674961312988884e+00
2.354999999999994945e-02,-2.274120244839747734e-38,3.076778007272504148e-36,2.108522787165441892e-01,-7.438314343915511384e-32,1.319829519921269636e-29,6.627232796504531898e+00,-2.738053594474692543e-01,-1.749762360483086532e+00,0.000000000000000000e+00,0.000000000000000000e+00,0.000000000000000000e+00,2.466150233045832962e+01,-8.220567383095833236e+00
2.364999999999994884e-02,2.065920736345108223e-38,-2.791079790679022689e-36,2.115140232445018309e-01,6.852103062590311899e-32,-1.209309203369691221e-29,6.607621352903247036e+00,1.007351621280429432e+00,-9.058575971206359601e-01,0.000000000000000000e+00,0.000000000000000000e+00,0.000000000000000000e+00,2.476622208599810548e+01,-8.255514429314946057e+00
2.374999999999994824e-02,-1.876619927101013889e-38,2.531753437331524153e-36,2.121728029909166757e-01,-6.310138035877962215e-32,1.107853347526679050e-29,6.568095340228108370e+00,1.609699390465763047e+00,-1.998079936041682325e-01,0.000000000000000000e+00,0.000000000000000000e+00,0.000000000000000000e+00,2.487094184073982461e+01,-8.290492957426037535e+00
2.384999999999994763e-02,1.704520072342290445e-38,-2.296381556746720207e-36,2.128269556339400792e-01,5.809293411888015188e-32,-1.014738394156286367e-29,6.514934203823004033e+00,5.391062501246686178e-01,-7.427704927778803201e-01,0.000000000000000000e+00,0.000000000000000000e+00,0.000000000000000000e+00,2.497566159620069470e+01,-8.325318288385460619e+00
2.394999999999994703e-02,-1.548073989264268646e-38,2.082766517905584862e-36,2.134756757151976825e-01,-5.346639917732528444e-32,9.292964389886465456e-30,6.459495277239668987e+00,1.750811622104732290e+00,1.098006426650459388e-02,0.000000000000000000e+00,0.000000000000000000e+00,0.000000000000000000e+00,2.508038135101319810e+01,-8.360257558136705569e+00
2.404999999999994642e-02,1.405871922078462666e-38,-1.888910671265225440e-36,2.141186150759988305e-01,4.919435415234252567e-32,-8.509111778165182320e-30,6.399294464084555933e+00,1.640383503911051699e+00,-7.617768536247371269e-02,0.000000000000000000e+00,0.000000000000000000e+00,0.000000000000000000e+00,2.518510110640967525e+01,-8.395199005610336940e+00
2.414999999999994582e-02,-1.276629528437152329e-38,1.712998328773862298e-36,2.147565096911678018e-01,-4.525115518205235968e-32,7.790141227021217580e-30,6.358503134370696586e+00,-3.716968941747137434e-01,-1.256998558696013957e+00,0.000000000000000000e+00,0.000000000000000000e+00,0.000000000000000000e+00,2.528982086127687268e+01,-8.430062905964199160e+00
2.424999999999994521e-02,1.159176894303349191e-38,-1.553379348068107600e-36,2.153909250498684813e-01,4.161284339936414911e-32,-7.130810732243142912e-30,6.329815005898112190e+00,1.245884174808567779e-01,-1.039911604124351241e+00,0.000000000000000000e+00,0.000000000000000000e+00,0.000000000000000000e+00,2.539454061662785733e+01,-8.464928673460443420e+00
2.434999999999994461e-02,-3.798316386886904936e-28,-3.927404815251434972e-29,2.160219535452858608e-01,-7.560458401667255530e-24,-7.817337734304452059e-25,6.290796355326400580e+00,1.471428754100962522e+00,-3.849040540079843309e-01,0.000000000000000000e+00,0.000000000000000000e+00,0.000000000000000000e+00,2.549926037153683467e+01,-8.499896118729578731e+00
2.444999999999994400e-02,7.560449866174843793e-28,7.818224585959111505e-29,2.166491820954700998e-01,3.003562235032433654e-23,3.105797685784943309e-24,6.253735135115426225e+00,3.058342772701231893e-01,-1.465333185241678216e+00,0.000000000000000000e+00,0.000000000000000000e+00,0.000000000000000000e+00,2.560398012684580493e+01,-8.534808422616656287e+00
2.454999999999994340e-02,-7.577354463384590812e-28,-2.791736305013632133e-28,2.172733436727889711e-01,-5.952655058168386537e-23,-1.015264871814302534e-23,6.229463951817036715e+00,3.999048442384781854e+00,1.351160128872203048e+00,0.000000000000000000e+00,0.000000000000000000e+00,0.000000000000000000e+00,2.570869988179622823e+01,-8.569724040576339519e+00
2.464999999999994279e-02,2.292195882980319940e-27,-5.998958103874701470e-28,2.178953131089847450e-01,1.186733420906719412e-22,3.536346230236613220e-24,6.209925733203260911e+00,1.211291307098266712e+00,1.640984479158925091e-01,0.000000000000000000e+00,0.000000000000000000e+00,0.000000000000000000e+00,2.581341963706767118e+01,-8.863791802572549727e+00
2.474999999999994219e-02,-1.800081743881165391e-28,-3.535327864524979307e-26,2.185153065186160037e-01,-1.645628340370664417e-22,-6.950491819413739775e-22,6.189943883075160080e+00,1.423596944954472976e+00,-1.234045351783485955e+00,0.000000000000000000e+00,0.000000000000000000e+00,0.000000000000000000e+00,2.591813939205127681e+01,-8.556358383971122805e+00
2.484999999999994158e-02,-3.293451475733684154e-27,7.214433136230171228e-26,2.191357366209283064e-01,9.710172664337197263e-23,2.822244389825963289e-21,6.218425246382862426e+00,2.988953542825042664e+00,-2.590875473424528064e+00,0.000000000000000000e+00,0.000000000000000000e+00,0.000000000000000000e+00,2.602285914729466043e+01,-8.611939410722563082e+00
2.494999999999994097e-02,3.507972794962934514e-27,-7.272764878195964017e-26,2.197607810263551842e-01,4.420785948066155687e-23,-5.645787405292817994e-21,6.282462134056479464e+00,2.716811544077436302e+00,-2.354890202714561731e+00,0.000000000000000000e+00,0.000000000000000000e+00,0.000000000000000000e+00,2.612757890230116331e+01,-8.842610601166304818e+00
2.499999999999994241e-02,-4.267370340305787056e-27,7.471189608054470481e-26,2.200758068377071663e-01,-3.573936822070384554e-22,1.136770506768585464e-20,6.318703840843461705e+00,1.859135068486528874e+00,-1.611440097919204284e+00,0.000000000000000000e+00,0.000000000000000000e+00,0.000000000000000000e+00,2.617993877996677199e+01,-8.622522484055780367e+00
2.504999999999994384e-02,4.239504355855189520e-27,-7.322120154500684018e-26,2.203924881870318597e-01,6.923042235439409520e-22,-1.694042338741948389e-20,6.348483942859908247e+00,6.826849551023488338e-01,-5.917192697750813801e-01,0.000000000000000000e+00,0.000000000000000000e+00,0.000000000000000000e+00,2.623229865742762001e+01,-8.721933113919748237e+00
2.509999999999994527e-02,-4.204364945579885131e-27,7.127578890451099234e-26,2.207101413951093327e-01,-1.012975742700516371e-21,2.214721299487318500e-20,6.357790477551418462e+00,5.447965071372174093e-13,-4.722037402278417152e-13,0.000000000000000000e+00,0.000000000000000000e+00,0.000000000000000000e+00,2.628465853507875138e+01,-8.839682748070671892e+00
2.514999999999994670e-02,3.553338773010269171e-27,-6.850390810252319395e-26,2.210280411211252849e-01,1.291673331730742775e-21,-2.689991073008574807e-20,6.358135190028464834e+00,0.000000000000000000e+00,0.000000000000000000e+00,0.000000000000000000e+00,0.000000000000000000e+00,0.000000000000000000e+00,2.633701841255672349e+01,-8.751919720660856328e+00
2.519999999999994814e-02,-4.648112831862171379e-27,6.849291272825049581e-26,2.213458124624320955e-01,-1.572012918176111208e-21,3.125703442636354160e-20,6.352791767698233727e+00,0.000000000000000000e+00,0.000000000000000000e+00,0.000000000000000000e+00,0.000000000000000000e+00,0.000000000000000000e+00,2.638937829018924219e+01,-8.773012123119936945e+00
2.524999999999994957e-02,3.539635959218008695e-27,-6.773789645760747625e-26,2.216631420048629508e-01,1.834815961210597907e-21,-3.529303767990776821e-20,6.340370481854026075e+00,0.000000000000000000e+00,0.000000000000000000e+00,0.000000000000000000e+00,0.000000000000000000e+00,0.000000000000000000e+00,2.644173816768431351e+01,-8.842568045971448853e+00
2.529999999999995100e-02,-1.362080746651888652e-27,6.157826321146956806e-26,2.219800733743816090e-01,-1.949417972468238145e-21,3.876511445523229621e-20,6.336855827200395197e+00,-1.522795941693766641e+00,-8.222385599645414267e-01,0.000000000000000000e+00,0.000000000000000000e+00,0.000000000000000000e+00,2.649409804530224477e+01,-8.826013023479672981e+00
2.534999999999995243e-02,3.045780981990587476e-27,-5.691309903280990514e-26,2.222972334957165896e-01,2.029340384419976063e-21,-4.152946124947129380e-20,6.349492454025446264e+00,-3.331384010434293774e+00,-1.797579877775295598e+00,0.000000000000000000e+00,0.000000000000000000e+00,0.000000000000000000e+00,2.654645792280819450e+01,-8.828940974344094528e+00
2.539999999999995386e-02,-4.042491399882503985e-27,5.400042119765274468e-26,2.226152362056450507e-01,-2.203478059035610438e-21,4.373725535410374353e-20,6.370616476960979213e+00,-4.098287875914527589e+00,-2.211140713936466717e+00,0.000000000000000000e+00,0.000000000000000000e+00,0.000000000000000000e+00,2.659881780042036326e+01,-8.876740850139345440e+00
2.544999999999995530e-02,3.266571373278519517e-27,-5.138223798033244411e-26,2.229345354004403090e-01,2.374126670768322023e-21,-4.549672347476175717e-20,6.401305162659207681e+00,-3.591777201849152501e+00,-1.937902548345150633e+00,0.000000000000000000e+00,0.000000000000000000e+00,0.000000000000000000e+00,2.665117767792983017e+01,-8.890113072807404038e+00
2.549999999999995673e-02,-3.167513908311480445e-27,5.068736764749973346e-26,2.232553517149667155e-01,-2.497757960225105047e-21,4.692428092568917876e-20,6.431383902028012578e+00,-1.976731893166356446e+00,-1.066751243709265662e+00,0.000000000000000000e+00,0.000000000000000000e+00,0.000000000000000000e+00,2.670353755553574970e+01,-8.896324578869666766e+00
2.554999999999995816e-02,6.078187138192164606e-27,-4.977846506794379932e-26,2.235774660540078285e-01,2.722040658224231939e-21,-4.811490152934041542e-20,6.453202647566491201e+00,-2.097497771251167695e-02,-1.135201170867874282e-02,0.000000000000000000e+00,0.000000000000000000e+00,0.000000000000000000e+00,2.675589743305475920e+01,-8.921845570214964383e+00
2.559999999999995959e-02,-9.704429562339188926e-27,4.413003934350105334e-26,2.239004986589296087e-01,-3.194211578087975141e-21,4.889560716039337241e-20,6.468125100140705186e+00,5.522733516820190102e-13,2.988996444997456878e-13,0.000000000000000000e+00,0.000000000000000000e+00,0.000000000000000000e+00,2.680825731064725659e+01,-8.938996560113961820e+00
2.569999999999995899e-02,1.009961603747308023e-26,-3.568513074867169736e-26,2.245481624872028015e-01,3.414630684143911802e-21,-4.740288921553347199e-20,6.485124400373635467e+00,0.000000000000000000e+00,0.000000000000000000e+00,0.000000000000000000e+00,0.000000000000000000e+00,0.000000000000000000e+00,2.691297706574207638e+01,-8.965778984139094021e+00
2.579999999999995838e-02,-6.715670276125170315e-27,2.907001665125712309e-26,2.251952810606543121e-01,-3.558198319533485796e-21,4.554594159124390357e-20,6.457480356772224539e+00,-8.342061334168327846e+00,2.668629472541001135e+00,0.000000000000000000e+00,0.000000000000000000e+00,0.000000000000000000e+00,2.701769682087860502e+01,-9.006505470162728955e+00
2.584999999999995982e-02,7.688520003001398956e-28,-2.600107462321858273e-26,2.255166822430496043e-01,3.649555968323606961e-21,-4.458042698182699894e-20,6.398546984660473669e+00,-4.424278353001235509e+00,3.080941177975024647e+00,0.000000000000000000e+00,0.000000000000000000e+00,0.000000000000000000e+00,2.707005669842618190e+01,-9.020078566969074174e+00
2.587499999999996053e-02,-1.431674173975685122e-27,2.423165356658023890e-26,2.256697047802470046e-01,-3.624289094992475660e-21,4.646851674150202924e-20,6.372381242415890767e+00,-4.020064597398456563e+00,4.700206302042391648e+00,0.000000000000000000e+00,0.000000000000000000e+00,0.000000000000000000e+00,2.709617713736135158e+01,-9.026104914322095496e+00
